user_id,blockcode,position,trial_type,block,trialnum,rt,response,site,stim_id,face_sex,face_type,target,correct,mean_rt,sd_rt,n_correct
401,real_a,bottomleft,diff,a,1,1095,18,VU,wfn1,f,typical,circle,1,733.3555555555556,257.46139653756,45
401,real_a,topright,diff,a,2,437,18,VU,wmn1,m,typical,circle,1,733.3555555555556,257.46139653756,45
401,real_a,topleft,diff,a,3,718,23,VU,wmd2,m,disfigured,square,1,733.3555555555556,257.46139653756,45
401,real_a,topright,diff,a,4,692,23,VU,wmd3,m,disfigured,square,1,733.3555555555556,257.46139653756,45
401,real_a,bottomright,diff,a,5,554,23,VU,wmn3,m,typical,square,1,733.3555555555556,257.46139653756,45
401,real_a,bottomright,diff,a,7,725,18,VU,wfn2,f,typical,circle,1,733.3555555555556,257.46139653756,45
401,real_a,topleft,diff,a,11,390,18,VU,wfn3,f,typical,circle,1,733.3555555555556,257.46139653756,45
401,real_a,bottomleft,diff,a,12,609,18,VU,wmn2,m,typical,circle,1,733.3555555555556,257.46139653756,45
401,real_a,bottomright,diff,a,13,739,23,VU,wmd1,m,disfigured,square,1,733.3555555555556,257.46139653756,45
401,real_a,topright,diff,a,16,667,23,VU,wfd2,f,disfigured,square,1,733.3555555555556,257.46139653756,45
401,real_a,bottomleft,diff,a,18,839,18,VU,wfd3,f,disfigured,circle,1,733.3555555555556,257.46139653756,45
401,real_a,topleft,diff,a,19,696,23,VU,wfd1,f,disfigured,square,1,733.3555555555556,257.46139653756,45
401,real_b,bottomright,diff,b,3,507,23,VU,wfd6,f,disfigured,square,1,733.3555555555556,257.46139653756,45
401,real_b,bottomleft,diff,b,6,628,18,VU,wfn7,f,typical,circle,1,733.3555555555556,257.46139653756,45
401,real_b,topleft,diff,b,7,413,23,VU,wmd8,m,disfigured,square,1,733.3555555555556,257.46139653756,45
401,real_b,bottomright,diff,b,10,458,18,VU,wmd7,m,disfigured,circle,1,733.3555555555556,257.46139653756,45
401,real_b,bottomleft,diff,b,12,448,18,VU,wmn8,m,typical,circle,1,733.3555555555556,257.46139653756,45
401,real_b,topright,diff,b,13,608,23,VU,wfn6,f,typical,square,1,733.3555555555556,257.46139653756,45
401,real_b,topleft,diff,b,14,690,23,VU,wmn6,m,typical,square,1,733.3555555555556,257.46139653756,45
401,real_b,topright,diff,b,17,888,23,VU,wfd8,f,disfigured,square,1,733.3555555555556,257.46139653756,45
401,real_b,bottomright,diff,b,18,711,18,VU,wfn8,f,typical,circle,1,733.3555555555556,257.46139653756,45
401,real_b,topright,diff,b,19,1069,23,VU,wmn7,m,typical,square,1,733.3555555555556,257.46139653756,45
401,real_b,bottomleft,diff,b,20,548,23,VU,wmd6,m,disfigured,square,1,733.3555555555556,257.46139653756,45
401,real_c,bottomright,diff,c,1,1102,23,VU,wfd5,f,disfigured,square,1,733.3555555555556,257.46139653756,45
401,real_c,bottomleft,diff,c,5,1323,23,VU,wfd4,f,disfigured,square,1,733.3555555555556,257.46139653756,45
401,real_c,topleft,diff,c,6,592,18,VU,wfn4,f,typical,circle,1,733.3555555555556,257.46139653756,45
401,real_c,bottomright,diff,c,7,563,23,VU,wmd3,m,disfigured,square,1,733.3555555555556,257.46139653756,45
401,real_c,bottomright,diff,c,10,644,23,VU,wmn4,m,typical,square,1,733.3555555555556,257.46139653756,45
401,real_c,topleft,diff,c,13,598,18,VU,wmn5,m,typical,circle,1,733.3555555555556,257.46139653756,45
401,real_c,topright,diff,c,14,712,18,VU,wmn3,m,typical,circle,1,733.3555555555556,257.46139653756,45
401,real_c,bottomleft,diff,c,15,518,23,VU,wmd5,m,disfigured,square,1,733.3555555555556,257.46139653756,45
401,real_c,topright,diff,c,18,609,23,VU,wmd4,m,disfigured,square,1,733.3555555555556,257.46139653756,45
401,real_c,bottomleft,diff,c,19,795,18,VU,wfn3,f,typical,circle,1,733.3555555555556,257.46139653756,45
401,real_c,topright,diff,c,20,638,23,VU,wfn5,f,typical,square,1,733.3555555555556,257.46139653756,45
401,real_d,bottomleft,diff,d,1,1505.7397451682357,23,VU,wmn9,m,typical,square,1,733.3555555555556,257.46139653756,45
401,real_d,topright,diff,d,3,1059,18,VU,wmd10,m,disfigured,circle,1,733.3555555555556,257.46139653756,45
401,real_d,bottomright,diff,d,4,619,23,VU,wfd8,f,disfigured,square,1,733.3555555555556,257.46139653756,45
401,real_d,topleft,diff,d,7,673,18,VU,wmd9,m,disfigured,circle,1,733.3555555555556,257.46139653756,45
401,real_d,topleft,diff,d,11,597,18,VU,wfn10,f,typical,circle,1,733.3555555555556,257.46139653756,45
401,real_d,topright,diff,d,12,815,18,VU,wfn8,f,typical,circle,1,733.3555555555556,257.46139653756,45
401,real_d,bottomleft,diff,d,14,799,18,VU,wfd10,f,disfigured,circle,1,733.3555555555556,257.46139653756,45
401,real_d,topright,diff,d,15,721,23,VU,wfd9,f,disfigured,square,1,733.3555555555556,257.46139653756,45
401,real_d,bottomright,diff,d,18,1134,18,VU,wfn9,f,typical,circle,1,733.3555555555556,257.46139653756,45
401,real_d,bottomright,diff,d,19,1075,18,VU,wmn10,m,typical,circle,1,733.3555555555556,257.46139653756,45
401,real_d,topleft,diff,d,20,594,18,VU,wmn8,m,typical,circle,1,733.3555555555556,257.46139653756,45
402,real_a,bottomleft,diff,a,1,614.5687959296841,18,VU,wfd3,f,disfigured,circle,1,400.3829787234043,71.39527240209328,47
402,real_a,topleft,diff,a,3,509,18,VU,wfn3,f,typical,circle,1,400.3829787234043,71.39527240209328,47
402,real_a,bottomright,diff,a,6,454,23,VU,wmd1,m,disfigured,square,1,400.3829787234043,71.39527240209328,47
402,real_a,topright,diff,a,8,431,23,VU,wmn1,m,typical,square,1,400.3829787234043,71.39527240209328,47
402,real_a,topleft,diff,a,9,376,23,VU,wmd2,m,disfigured,square,1,400.3829787234043,71.39527240209328,47
402,real_a,bottomleft,diff,a,11,504,23,VU,wfn1,f,typical,square,1,400.3829787234043,71.39527240209328,47
402,real_a,bottomleft,diff,a,12,430,23,VU,wmn2,m,typical,square,1,400.3829787234043,71.39527240209328,47
402,real_a,bottomright,diff,a,13,407,18,VU,wmn3,m,typical,circle,1,400.3829787234043,71.39527240209328,47
402,real_a,topright,diff,a,15,446,18,VU,wmd3,m,disfigured,circle,1,400.3829787234043,71.39527240209328,47
402,real_a,topright,diff,a,16,431,23,VU,wfd2,f,disfigured,square,1,400.3829787234043,71.39527240209328,47
402,real_a,bottomright,diff,a,17,448,23,VU,wfn2,f,typical,square,1,400.3829787234043,71.39527240209328,47
402,real_a,topleft,diff,a,19,417,23,VU,wfd1,f,disfigured,square,1,400.3829787234043,71.39527240209328,47
402,real_b,topright,diff,b,1,451,18,VU,wfn6,f,typical,circle,1,400.3829787234043,71.39527240209328,47
402,real_b,bottomleft,diff,b,2,483,18,VU,wfn7,f,typical,circle,1,400.3829787234043,71.39527240209328,47
402,real_b,bottomright,diff,b,5,359,18,VU,wfn8,f,typical,circle,1,400.3829787234043,71.39527240209328,47
402,real_b,topleft,diff,b,6,371,23,VU,wfd7,f,disfigured,square,1,400.3829787234043,71.39527240209328,47
402,real_b,bottomleft,diff,b,7,367,23,VU,wmn8,m,typical,square,1,400.3829787234043,71.39527240209328,47
402,real_b,topleft,diff,b,9,469,23,VU,wmd8,m,disfigured,square,1,400.3829787234043,71.39527240209328,47
402,real_b,topright,diff,b,10,341,23,VU,wmn7,m,typical,square,1,400.3829787234043,71.39527240209328,47
402,real_b,bottomleft,diff,b,11,369,18,VU,wmd6,m,disfigured,circle,1,400.3829787234043,71.39527240209328,47
402,real_b,bottomright,diff,b,12,381,18,VU,wmd7,m,disfigured,circle,1,400.3829787234043,71.39527240209328,47
402,real_b,topleft,diff,b,16,311,23,VU,wmn6,m,typical,square,1,400.3829787234043,71.39527240209328,47
402,real_b,bottomright,diff,b,18,362,23,VU,wfd6,f,disfigured,square,1,400.3829787234043,71.39527240209328,47
402,real_b,topright,diff,b,19,334,18,VU,wfd8,f,disfigured,circle,1,400.3829787234043,71.39527240209328,47
402,real_c,bottomleft,diff,c,2,355,23,VU,wfn3,f,typical,square,1,400.3829787234043,71.39527240209328,47
402,real_c,bottomleft,diff,c,4,378,23,VU,wmd5,m,disfigured,square,1,400.3829787234043,71.39527240209328,47
402,real_c,topright,diff,c,6,542,18,VU,wfn5,f,typical,circle,1,400.3829787234043,71.39527240209328,47
402,real_c,topright,diff,c,9,368,18,VU,wmn3,m,typical,circle,1,400.3829787234043,71.39527240209328,47
402,real_c,topleft,diff,c,10,419,23,VU,wmn5,m,typical,square,1,400.3829787234043,71.39527240209328,47
402,real_c,bottomleft,diff,c,11,340,23,VU,wfd4,f,disfigured,square,1,400.3829787234043,71.39527240209328,47
402,real_c,bottomright,diff,c,12,393,23,VU,wfd5,f,disfigured,square,1,400.3829787234043,71.39527240209328,47
402,real_c,topleft,diff,c,13,435,18,VU,wfn4,f,typical,circle,1,400.3829787234043,71.39527240209328,47
402,real_c,bottomright,diff,c,14,428,23,VU,wmd3,m,disfigured,square,1,400.3829787234043,71.39527240209328,47
402,real_c,topleft,diff,c,15,453,18,VU,wfd3,f,disfigured,circle,1,400.3829787234043,71.39527240209328,47
402,real_c,bottomright,diff,c,18,498,18,VU,wmn4,m,typical,circle,1,400.3829787234043,71.39527240209328,47
402,real_c,topright,diff,c,19,464,18,VU,wmd4,m,disfigured,circle,1,400.3829787234043,71.39527240209328,47
402,real_d,bottomright,diff,d,1,452,23,VU,wfd8,f,disfigured,square,1,400.3829787234043,71.39527240209328,47
402,real_d,bottomleft,diff,d,2,348,23,VU,wmd8,m,disfigured,square,1,400.3829787234043,71.39527240209328,47
402,real_d,topleft,diff,d,4,348,18,VU,wfn10,f,typical,circle,1,400.3829787234043,71.39527240209328,47
402,real_d,topright,diff,d,6,315,18,VU,wmd10,m,disfigured,circle,1,400.3829787234043,71.39527240209328,47
402,real_d,bottomleft,diff,d,8,356,18,VU,wfd10,f,disfigured,circle,1,400.3829787234043,71.39527240209328,47
402,real_d,topleft,diff,d,9,288,23,VU,wmd9,m,disfigured,square,1,400.3829787234043,71.39527240209328,47
402,real_d,topright,diff,d,12,304,18,VU,wfd9,f,disfigured,circle,1,400.3829787234043,71.39527240209328,47
402,real_d,topright,diff,d,14,309,18,VU,wfn8,f,typical,circle,1,400.3829787234043,71.39527240209328,47
402,real_d,bottomright,diff,d,15,331,23,VU,wmn10,m,typical,square,1,400.3829787234043,71.39527240209328,47
402,real_d,bottomleft,diff,d,18,303,23,VU,wmn9,m,typical,square,1,400.3829787234043,71.39527240209328,47
402,real_d,topleft,diff,d,19,317,18,VU,wmn8,m,typical,circle,1,400.3829787234043,71.39527240209328,47
403,real_a,topleft,diff,a,2,663,23,VU,wfn3,f,typical,square,1,452.4166666666667,110.97015763945198,48
403,real_a,topright,diff,a,3,294,18,VU,wmn1,m,typical,circle,1,452.4166666666667,110.97015763945198,48
403,real_a,bottomleft,diff,a,4,381,18,VU,wmn2,m,typical,circle,1,452.4166666666667,110.97015763945198,48
403,real_a,topright,diff,a,6,471,18,VU,wfd2,f,disfigured,circle,1,452.4166666666667,110.97015763945198,48
403,real_a,bottomright,diff,a,8,470,18,VU,wmd1,m,disfigured,circle,1,452.4166666666667,110.97015763945198,48
403,real_a,topleft,diff,a,9,342,23,VU,wfd1,f,disfigured,square,1,452.4166666666667,110.97015763945198,48
403,real_a,bottomleft,diff,a,10,346,18,VU,wfd3,f,disfigured,circle,1,452.4166666666667,110.97015763945198,48
403,real_a,bottomright,diff,a,11,471,23,VU,wmn3,m,typical,square,1,452.4166666666667,110.97015763945198,48
403,real_a,bottomright,diff,a,12,350,18,VU,wfn2,f,typical,circle,1,452.4166666666667,110.97015763945198,48
403,real_a,bottomleft,diff,a,13,419,18,VU,wfn1,f,typical,circle,1,452.4166666666667,110.97015763945198,48
403,real_a,topleft,diff,a,14,356,23,VU,wmd2,m,disfigured,square,1,452.4166666666667,110.97015763945198,48
403,real_a,topright,diff,a,20,422,18,VU,wmd3,m,disfigured,circle,1,452.4166666666667,110.97015763945198,48
403,real_b,topleft,diff,b,1,518,18,VU,wmn6,m,typical,circle,1,452.4166666666667,110.97015763945198,48
403,real_b,topleft,diff,b,3,447,18,VU,wmd8,m,disfigured,circle,1,452.4166666666667,110.97015763945198,48
403,real_b,topright,diff,b,4,455,18,VU,wmn7,m,typical,circle,1,452.4166666666667,110.97015763945198,48
403,real_b,bottomleft,diff,b,5,615,18,VU,wmn8,m,typical,circle,1,452.4166666666667,110.97015763945198,48
403,real_b,topright,diff,b,6,441,18,VU,wfn6,f,typical,circle,1,452.4166666666667,110.97015763945198,48
403,real_b,topright,diff,b,7,337,23,VU,wfd8,f,disfigured,square,1,452.4166666666667,110.97015763945198,48
403,real_b,bottomright,diff,b,10,376,23,VU,wmd7,m,disfigured,square,1,452.4166666666667,110.97015763945198,48
403,real_b,bottomleft,diff,b,12,435,23,VU,wmd6,m,disfigured,square,1,452.4166666666667,110.97015763945198,48
403,real_b,bottomleft,diff,b,13,531,18,VU,wfn7,f,typical,circle,1,452.4166666666667,110.97015763945198,48
403,real_b,bottomright,diff,b,16,536,18,VU,wfn8,f,typical,circle,1,452.4166666666667,110.97015763945198,48
403,real_b,topleft,diff,b,19,584,18,VU,wfd7,f,disfigured,circle,1,452.4166666666667,110.97015763945198,48
403,real_b,bottomright,diff,b,20,331,23,VU,wfd6,f,disfigured,square,1,452.4166666666667,110.97015763945198,48
403,real_c,bottomright,diff,c,1,408,23,VU,wmd3,m,disfigured,square,1,452.4166666666667,110.97015763945198,48
403,real_c,topleft,diff,c,2,345,18,VU,wfn4,f,typical,circle,1,452.4166666666667,110.97015763945198,48
403,real_c,bottomright,diff,c,4,448,18,VU,wmn4,m,typical,circle,1,452.4166666666667,110.97015763945198,48
403,real_c,bottomleft,diff,c,8,383,18,VU,wfd4,f,disfigured,circle,1,452.4166666666667,110.97015763945198,48
403,real_c,topright,diff,c,9,785.3271395850227,18,VU,wmn3,m,typical,circle,1,452.4166666666667,110.97015763945198,48
403,real_c,bottomleft,diff,c,10,738,23,VU,wmd5,m,disfigured,square,1,452.4166666666667,110.97015763945198,48
403,real_c,topright,diff,c,11,591,23,VU,wmd4,m,disfigured,square,1,452.4166666666667,110.97015763945198,48
403,real_c,topleft,diff,c,12,490,23,VU,wmn5,m,typical,square,1,452.4166666666667,110.97015763945198,48
403,real_c,topright,diff,c,13,456,23,VU,wfn5,f,typical,square,1,452.4166666666667,110.97015763945198,48
403,real_c,topleft,diff,c,16,367,18,VU,wfd3,f,disfigured,circle,1,452.4166666666667,110.97015763945198,48
403,real_c,bottomright,diff,c,17,410,23,VU,wfd5,f,disfigured,square,1,452.4166666666667,110.97015763945198,48
403,real_c,bottomleft,diff,c,20,475,18,VU,wfn3,f,typical,circle,1,452.4166666666667,110.97015763945198,48
403,real_d,topright,diff,d,3,358,23,VU,wfn8,f,typical,square,1,452.4166666666667,110.97015763945198,48
403,real_d,topleft,diff,d,4,554,18,VU,wmn8,m,typical,circle,1,452.4166666666667,110.97015763945198,48
403,real_d,bottomright,diff,d,5,478,18,VU,wfd8,f,disfigured,circle,1,452.4166666666667,110.97015763945198,48
403,real_d,topleft,diff,d,8,532,18,VU,wmd9,m,disfigured,circle,1,452.4166666666667,110.97015763945198,48
403,real_d,topright,diff,d,9,513,18,VU,wfd9,f,disfigured,circle,1,452.4166666666667,110.97015763945198,48
403,real_d,bottomleft,diff,d,11,327,23,VU,wmd8,m,disfigured,square,1,452.4166666666667,110.97015763945198,48
403,real_d,bottomright,diff,d,13,321,23,VU,wmn10,m,typical,square,1,452.4166666666667,110.97015763945198,48
403,real_d,bottomleft,diff,d,14,350,18,VU,wfd10,f,disfigured,circle,1,452.4166666666667,110.97015763945198,48
403,real_d,bottomright,diff,d,15,370,23,VU,wfn9,f,typical,square,1,452.4166666666667,110.97015763945198,48
403,real_d,bottomleft,diff,d,17,463,18,VU,wmn9,m,typical,circle,1,452.4166666666667,110.97015763945198,48
403,real_d,topright,diff,d,19,539,18,VU,wmd10,m,disfigured,circle,1,452.4166666666667,110.97015763945198,48
403,real_d,topleft,diff,d,20,383,23,VU,wfn10,f,typical,square,1,452.4166666666667,110.97015763945198,48
404,real_a,bottomright,diff,a,1,719,18,VU,wmn3,m,typical,circle,1,550.0212765957447,92.50816400205188,47
404,real_a,topright,diff,a,2,429,23,VU,wmn1,m,typical,square,1,550.0212765957447,92.50816400205188,47
404,real_a,bottomleft,diff,a,3,589,18,VU,wfd3,f,disfigured,circle,1,550.0212765957447,92.50816400205188,47
404,real_a,topright,diff,a,4,720,18,VU,wfd2,f,disfigured,circle,1,550.0212765957447,92.50816400205188,47
404,real_a,topright,diff,a,5,557,23,VU,wmd3,m,disfigured,square,1,550.0212765957447,92.50816400205188,47
404,real_a,bottomright,diff,a,6,449,23,VU,wmd1,m,disfigured,square,1,550.0212765957447,92.50816400205188,47
404,real_a,bottomright,diff,a,7,578,18,VU,wfn2,f,typical,circle,1,550.0212765957447,92.50816400205188,47
404,real_a,topleft,diff,a,8,541,23,VU,wfn3,f,typical,square,1,550.0212765957447,92.50816400205188,47
404,real_a,bottomleft,diff,a,13,511,18,VU,wmn2,m,typical,circle,1,550.0212765957447,92.50816400205188,47
404,real_a,bottomleft,diff,a,14,629,18,VU,wfn1,f,typical,circle,1,550.0212765957447,92.50816400205188,47
404,real_a,topleft,diff,a,19,589,18,VU,wmd2,m,disfigured,circle,1,550.0212765957447,92.50816400205188,47
404,real_a,topleft,diff,a,20,512,18,VU,wfd1,f,disfigured,circle,1,550.0212765957447,92.50816400205188,47
404,real_b,bottomleft,diff,b,3,557,23,VU,wmn8,m,typical,square,1,550.0212765957447,92.50816400205188,47
404,real_b,bottomleft,diff,b,4,609,23,VU,wmd6,m,disfigured,square,1,550.0212765957447,92.50816400205188,47
404,real_b,topright,diff,b,6,753,23,VU,wfd8,f,disfigured,square,1,550.0212765957447,92.50816400205188,47
404,real_b,bottomright,diff,b,8,453,23,VU,wfn8,f,typical,square,1,550.0212765957447,92.50816400205188,47
404,real_b,bottomleft,diff,b,9,581,23,VU,wfn7,f,typical,square,1,550.0212765957447,92.50816400205188,47
404,real_b,topright,diff,b,11,551,23,VU,wmn7,m,typical,square,1,550.0212765957447,92.50816400205188,47
404,real_b,topleft,diff,b,12,523,23,VU,wmd8,m,disfigured,square,1,550.0212765957447,92.50816400205188,47
404,real_b,topleft,diff,b,15,487,23,VU,wmn6,m,typical,square,1,550.0212765957447,92.50816400205188,47
404,real_b,bottomright,diff,b,16,606,23,VU,wmd7,m,disfigured,square,1,550.0212765957447,92.50816400205188,47
404,real_b,bottomright,diff,b,17,616,18,VU,wfd6,f,disfigured,circle,1,550.0212765957447,92.50816400205188,47
404,real_b,topright,diff,b,18,473,23,VU,wfn6,f,typical,square,1,550.0212765957447,92.50816400205188,47
404,real_b,topleft,diff,b,19,433,18,VU,wfd7,f,disfigured,circle,1,550.0212765957447,92.50816400205188,47
404,real_c,bottomright,diff,c,1,559,18,VU,wmd3,m,disfigured,circle,1,550.0212765957447,92.50816400205188,47
404,real_c,topleft,diff,c,3,504,23,VU,wfn4,f,typical,square,1,550.0212765957447,92.50816400205188,47
404,real_c,bottomright,diff,c,5,525,18,VU,wfd5,f,disfigured,circle,1,550.0212765957447,92.50816400205188,47
404,real_c,bottomleft,diff,c,7,512,18,VU,wfn3,f,typical,circle,1,550.0212765957447,92.50816400205188,47
404,real_c,topright,diff,c,8,534,23,VU,wmn3,m,typical,square,1,550.0212765957447,92.50816400205188,47
404,real_c,topleft,diff,c,11,498,18,VU,wmn5,m,typical,circle,1,550.0212765957447,92.50816400205188,47
404,real_c,bottomleft,diff,c,12,520,23,VU,wmd5,m,disfigured,square,1,550.0212765957447,92.50816400205188,47
404,real_c,bottomleft,diff,c,14,438,18,VU,wfd4,f,disfigured,circle,1,550.0212765957447,92.50816400205188,47
404,real_c,topright,diff,c,15,527,18,VU,wfn5,f,typical,circle,1,550.0212765957447,92.50816400205188,47
404,real_c,topright,diff,c,16,460,23,VU,wmd4,m,disfigured,square,1,550.0212765957447,92.50816400205188,47
404,real_c,topleft,diff,c,17,764,18,VU,wfd3,f,disfigured,circle,1,550.0212765957447,92.50816400205188,47
404,real_c,bottomright,diff,c,19,353,23,VU,wmn4,m,typical,square,1,550.0212765957447,92.50816400205188,47
404,real_d,bottomright,diff,d,1,529,23,VU,wfn9,f,typical,square,1,550.0212765957447,92.50816400205188,47
404,real_d,bottomleft,diff,d,2,446,18,VU,wmn9,m,typical,circle,1,550.0212765957447,92.50816400205188,47
404,real_d,bottomright,diff,d,6,476,23,VU,wfd8,f,disfigured,square,1,550.0212765957447,92.50816400205188,47
404,real_d,topright,diff,d,7,540,18,VU,wfn8,f,typical,circle,1,550.0212765957447,92.50816400205188,47
404,real_d,topright,diff,d,10,519,18,VU,wmd10,m,disfigured,circle,1,550.0212765957447,92.50816400205188,47
404,real_d,topleft,diff,d,11,676,23,VU,wmn8,m,typical,square,1,550.0212765957447,92.50816400205188,47
404,real_d,topleft,diff,d,12,491,23,VU,wfn10,f,typical,square,1,550.0212765957447,92.50816400205188,47
404,real_d,topright,diff,d,16,621,23,VU,wfd9,f,disfigured,square,1,550.0212765957447,92.50816400205188,47
404,real_d,bottomleft,diff,d,17,774,18,VU,wmd8,m,disfigured,circle,1,550.0212765957447,92.50816400205188,47
404,real_d,bottomleft,diff,d,18,609,18,VU,wfd10,f,disfigured,circle,1,550.0212765957447,92.50816400205188,47
404,real_d,topleft,diff,d,20,511,18,VU,wmd9,m,disfigured,circle,1,550.0212765957447,92.50816400205188,47
406,real_a,topright,diff,a,1,676,18,VU,wmn1,m,typical,circle,1,598.9583333333334,121.18931178441497,48
406,real_a,bottomleft,diff,a,2,740,18,VU,wmn2,m,typical,circle,1,598.9583333333334,121.18931178441497,48
406,real_a,topleft,diff,a,6,650,18,VU,wfn3,f,typical,circle,1,598.9583333333334,121.18931178441497,48
406,real_a,bottomright,diff,a,7,714,18,VU,wmd1,m,disfigured,circle,1,598.9583333333334,121.18931178441497,48
406,real_a,bottomright,diff,a,8,512,23,VU,wfn2,f,typical,square,1,598.9583333333334,121.18931178441497,48
406,real_a,topright,diff,a,9,566,23,VU,wfd2,f,disfigured,square,1,598.9583333333334,121.18931178441497,48
406,real_a,bottomleft,diff,a,10,539,23,VU,wfn1,f,typical,square,1,598.9583333333334,121.18931178441497,48
406,real_a,topleft,diff,a,14,645,18,VU,wmd2,m,disfigured,circle,1,598.9583333333334,121.18931178441497,48
406,real_a,topright,diff,a,15,709,23,VU,wmd3,m,disfigured,square,1,598.9583333333334,121.18931178441497,48
406,real_a,bottomright,diff,a,16,603,18,VU,wmn3,m,typical,circle,1,598.9583333333334,121.18931178441497,48
406,real_a,bottomleft,diff,a,18,723,23,VU,wfd3,f,disfigured,square,1,598.9583333333334,121.18931178441497,48
406,real_a,topleft,diff,a,19,384,23,VU,wfd1,f,disfigured,square,1,598.9583333333334,121.18931178441497,48
406,real_b,bottomright,diff,b,2,498,18,VU,wfn8,f,typical,circle,1,598.9583333333334,121.18931178441497,48
406,real_b,bottomleft,diff,b,6,497,18,VU,wmd6,m,disfigured,circle,1,598.9583333333334,121.18931178441497,48
406,real_b,bottomright,diff,b,7,567,23,VU,wmd7,m,disfigured,square,1,598.9583333333334,121.18931178441497,48
406,real_b,topleft,diff,b,8,507,18,VU,wmd8,m,disfigured,circle,1,598.9583333333334,121.18931178441497,48
406,real_b,bottomleft,diff,b,10,518,18,VU,wfn7,f,typical,circle,1,598.9583333333334,121.18931178441497,48
406,real_b,bottomright,diff,b,11,636,18,VU,wfd6,f,disfigured,circle,1,598.9583333333334,121.18931178441497,48
406,real_b,bottomleft,diff,b,12,716,23,VU,wmn8,m,typical,square,1,598.9583333333334,121.18931178441497,48
406,real_b,topright,diff,b,14,595,23,VU,wfn6,f,typical,square,1,598.9583333333334,121.18931178441497,48
406,real_b,topright,diff,b,15,574,23,VU,wmn7,m,typical,square,1,598.9583333333334,121.18931178441497,48
406,real_b,topright,diff,b,18,633,23,VU,wfd8,f,disfigured,square,1,598.9583333333334,121.18931178441497,48
406,real_b,topleft,diff,b,19,962.5262686865783,18,VU,wmn6,m,typical,circle,1,598.9583333333334,121.18931178441497,48
406,real_b,topleft,diff,b,20,394,18,VU,wfd7,f,disfigured,circle,1,598.9583333333334,121.18931178441497,48
406,real_c,topright,diff,c,2,490,23,VU,wfn5,f,typical,square,1,598.9583333333334,121.18931178441497,48
406,real_c,topleft,diff,c,3,537,23,VU,wmn5,m,typical,square,1,598.9583333333334,121.18931178441497,48
406,real_c,topright,diff,c,4,494,18,VU,wmd4,m,disfigured,circle,1,598.9583333333334,121.18931178441497,48
406,real_c,bottomleft,diff,c,8,808,23,VU,wmd5,m,disfigured,square,1,598.9583333333334,121.18931178441497,48
406,real_c,topleft,diff,c,9,817,18,VU,wfn4,f,typical,circle,1,598.9583333333334,121.18931178441497,48
406,real_c,topright,diff,c,12,541,18,VU,wmn3,m,typical,circle,1,598.9583333333334,121.18931178441497,48
406,real_c,bottomleft,diff,c,13,530,23,VU,wfn3,f,typical,square,1,598.9583333333334,121.18931178441497,48
406,real_c,bottomright,diff,c,14,559,18,VU,wfd5,f,disfigured,circle,1,598.9583333333334,121.18931178441497,48
406,real_c,topleft,diff,c,15,579,18,VU,wfd3,f,disfigured,circle,1,598.9583333333334,121.18931178441497,48
406,real_c,bottomright,diff,c,16,558,23,VU,wmn4,m,typical,square,1,598.9583333333334,121.18931178441497,48
406,real_c,bottomleft,diff,c,17,546,18,VU,wfd4,f,disfigured,circle,1,598.9583333333334,121.18931178441497,48
406,real_c,bottomright,diff,c,19,663,18,VU,wmd3,m,disfigured,circle,1,598.9583333333334,121.18931178441497,48
406,real_d,topright,diff,d,1,864,18,VU,wfn8,f,typical,circle,1,598.9583333333334,121.18931178441497,48
406,real_d,topleft,diff,d,2,583,23,VU,wmn8,m,typical,square,1,598.9583333333334,121.18931178441497,48
406,real_d,bottomleft,diff,d,3,610,18,VU,wfd10,f,disfigured,circle,1,598.9583333333334,121.18931178441497,48
406,real_d,bottomleft,diff,d,4,517,18,VU,wmn9,m,typical,circle,1,598.9583333333334,121.18931178441497,48
406,real_d,bottomright,diff,d,5,442,18,VU,wmn10,m,typical,circle,1,598.9583333333334,121.18931178441497,48
406,real_d,topright,diff,d,7,599,23,VU,wmd10,m,disfigured,square,1,598.9583333333334,121.18931178441497,48
406,real_d,bottomright,diff,d,8,497,18,VU,wfn9,f,typical,circle,1,598.9583333333334,121.18931178441497,48
406,real_d,bottomleft,diff,d,10,574,18,VU,wmd8,m,disfigured,circle,1,598.9583333333334,121.18931178441497,48
406,real_d,topright,diff,d,12,566,23,VU,wfd9,f,disfigured,square,1,598.9583333333334,121.18931178441497,48
406,real_d,bottomright,diff,d,13,570,23,VU,wfd8,f,disfigured,square,1,598.9583333333334,121.18931178441497,48
406,real_d,topleft,diff,d,14,605,18,VU,wmd9,m,disfigured,circle,1,598.9583333333334,121.18931178441497,48
406,real_d,topleft,diff,d,17,547,23,VU,wfn10,f,typical,square,1,598.9583333333334,121.18931178441497,48
407,real_a,topleft,diff,a,1,901,23,VU,wfn3,f,typical,square,1,743.1521739130435,311.07019339273137,46
407,real_a,topleft,diff,a,2,932,23,VU,wmd2,m,disfigured,square,1,743.1521739130435,311.07019339273137,46
407,real_a,bottomleft,diff,a,3,817,23,VU,wfn1,f,typical,square,1,743.1521739130435,311.07019339273137,46
407,real_a,bottomleft,diff,a,4,1003,23,VU,wfd3,f,disfigured,square,1,743.1521739130435,311.07019339273137,46
407,real_a,topright,diff,a,6,1059,23,VU,wfd2,f,disfigured,square,1,743.1521739130435,311.07019339273137,46
407,real_a,bottomleft,diff,a,7,827,23,VU,wmn2,m,typical,square,1,743.1521739130435,311.07019339273137,46
407,real_a,bottomright,diff,a,9,682,23,VU,wfn2,f,typical,square,1,743.1521739130435,311.07019339273137,46
407,real_a,topright,diff,a,13,656,18,VU,wmd3,m,disfigured,circle,1,743.1521739130435,311.07019339273137,46
407,real_a,bottomright,diff,a,14,792,23,VU,wmn3,m,typical,square,1,743.1521739130435,311.07019339273137,46
407,real_a,bottomright,diff,a,16,485,18,VU,wmd1,m,disfigured,circle,1,743.1521739130435,311.07019339273137,46
407,real_a,topright,diff,a,18,907,18,VU,wmn1,m,typical,circle,1,743.1521739130435,311.07019339273137,46
407,real_b,topleft,diff,b,1,619,18,VU,wmd8,m,disfigured,circle,1,743.1521739130435,311.07019339273137,46
407,real_b,bottomleft,diff,b,3,417,18,VU,wmd6,m,disfigured,circle,1,743.1521739130435,311.07019339273137,46
407,real_b,topleft,diff,b,7,653,18,VU,wfd7,f,disfigured,circle,1,743.1521739130435,311.07019339273137,46
407,real_b,bottomright,diff,b,8,773,23,VU,wfd6,f,disfigured,square,1,743.1521739130435,311.07019339273137,46
407,real_b,topright,diff,b,9,832,18,VU,wfd8,f,disfigured,circle,1,743.1521739130435,311.07019339273137,46
407,real_b,topright,diff,b,10,785,23,VU,wfn6,f,typical,square,1,743.1521739130435,311.07019339273137,46
407,real_b,topleft,diff,b,11,556,18,VU,wmn6,m,typical,circle,1,743.1521739130435,311.07019339273137,46
407,real_b,bottomleft,diff,b,13,560,18,VU,wfn7,f,typical,circle,1,743.1521739130435,311.07019339273137,46
407,real_b,topright,diff,b,16,1520,23,VU,wmn7,m,typical,square,1,743.1521739130435,311.07019339273137,46
407,real_b,bottomleft,diff,b,18,725,23,VU,wmn8,m,typical,square,1,743.1521739130435,311.07019339273137,46
407,real_b,bottomright,diff,b,20,1628,18,VU,wmd7,m,disfigured,circle,1,743.1521739130435,311.07019339273137,46
407,real_c,bottomleft,diff,c,1,909,23,VU,wmd5,m,disfigured,square,1,743.1521739130435,311.07019339273137,46
407,real_c,bottomright,diff,c,2,691,23,VU,wfd5,f,disfigured,square,1,743.1521739130435,311.07019339273137,46
407,real_c,topleft,diff,c,4,622,18,VU,wmn5,m,typical,circle,1,743.1521739130435,311.07019339273137,46
407,real_c,bottomright,diff,c,6,702,18,VU,wmn4,m,typical,circle,1,743.1521739130435,311.07019339273137,46
407,real_c,topleft,diff,c,8,1676.3627540912375,18,VU,wfn4,f,typical,circle,1,743.1521739130435,311.07019339273137,46
407,real_c,topright,diff,c,12,514,18,VU,wfn5,f,typical,circle,1,743.1521739130435,311.07019339273137,46
407,real_c,bottomright,diff,c,13,431,18,VU,wmd3,m,disfigured,circle,1,743.1521739130435,311.07019339273137,46
407,real_c,topleft,diff,c,14,608,18,VU,wfd3,f,disfigured,circle,1,743.1521739130435,311.07019339273137,46
407,real_c,bottomleft,diff,c,15,714,23,VU,wfd4,f,disfigured,square,1,743.1521739130435,311.07019339273137,46
407,real_c,topright,diff,c,16,872,18,VU,wmn3,m,typical,circle,1,743.1521739130435,311.07019339273137,46
407,real_c,bottomleft,diff,c,18,1089,23,VU,wfn3,f,typical,square,1,743.1521739130435,311.07019339273137,46
407,real_c,topright,diff,c,20,774,23,VU,wmd4,m,disfigured,square,1,743.1521739130435,311.07019339273137,46
407,real_d,topright,diff,d,2,546,18,VU,wfd9,f,disfigured,circle,1,743.1521739130435,311.07019339273137,46
407,real_d,bottomleft,diff,d,4,454,23,VU,wfd10,f,disfigured,square,1,743.1521739130435,311.07019339273137,46
407,real_d,topleft,diff,d,5,582,18,VU,wmd9,m,disfigured,circle,1,743.1521739130435,311.07019339273137,46
407,real_d,bottomright,diff,d,7,490,23,VU,wmn10,m,typical,square,1,743.1521739130435,311.07019339273137,46
407,real_d,topleft,diff,d,9,348,18,VU,wfn10,f,typical,circle,1,743.1521739130435,311.07019339273137,46
407,real_d,bottomleft,diff,d,11,489,18,VU,wmd8,m,disfigured,circle,1,743.1521739130435,311.07019339273137,46
407,real_d,topright,diff,d,13,432,23,VU,wmd10,m,disfigured,square,1,743.1521739130435,311.07019339273137,46
407,real_d,bottomright,diff,d,14,513,18,VU,wfd8,f,disfigured,circle,1,743.1521739130435,311.07019339273137,46
407,real_d,bottomleft,diff,d,15,687,23,VU,wmn9,m,typical,square,1,743.1521739130435,311.07019339273137,46
407,real_d,topleft,diff,d,17,525,23,VU,wmn8,m,typical,square,1,743.1521739130435,311.07019339273137,46
407,real_d,topright,diff,d,18,667,23,VU,wfn8,f,typical,square,1,743.1521739130435,311.07019339273137,46
407,real_d,bottomright,diff,d,19,490,23,VU,wfn9,f,typical,square,1,743.1521739130435,311.07019339273137,46
408,real_a,topleft,diff,a,5,751,23,VU,wmd2,m,disfigured,square,1,704.2765957446809,211.01676238050476,47
408,real_a,bottomright,diff,a,7,871,23,VU,wmd1,m,disfigured,square,1,704.2765957446809,211.01676238050476,47
408,real_a,bottomleft,diff,a,8,758,23,VU,wfn1,f,typical,square,1,704.2765957446809,211.01676238050476,47
408,real_a,topright,diff,a,11,690,18,VU,wmd3,m,disfigured,circle,1,704.2765957446809,211.01676238050476,47
408,real_a,topleft,diff,a,13,1231,18,VU,wfd1,f,disfigured,circle,1,704.2765957446809,211.01676238050476,47
408,real_a,topright,diff,a,14,896,18,VU,wmn1,m,typical,circle,1,704.2765957446809,211.01676238050476,47
408,real_a,bottomright,diff,a,15,726,23,VU,wfn2,f,typical,square,1,704.2765957446809,211.01676238050476,47
408,real_a,topright,diff,a,16,900,18,VU,wfd2,f,disfigured,circle,1,704.2765957446809,211.01676238050476,47
408,real_a,bottomright,diff,a,18,687,23,VU,wmn3,m,typical,square,1,704.2765957446809,211.01676238050476,47
408,real_a,bottomleft,diff,a,19,630,23,VU,wmn2,m,typical,square,1,704.2765957446809,211.01676238050476,47
408,real_a,topleft,diff,a,20,503,18,VU,wfn3,f,typical,circle,1,704.2765957446809,211.01676238050476,47
408,real_b,topleft,diff,b,1,573,18,VU,wmd8,m,disfigured,circle,1,704.2765957446809,211.01676238050476,47
408,real_b,topright,diff,b,2,504,23,VU,wmn7,m,typical,square,1,704.2765957446809,211.01676238050476,47
408,real_b,bottomright,diff,b,4,930,23,VU,wmd7,m,disfigured,square,1,704.2765957446809,211.01676238050476,47
408,real_b,bottomright,diff,b,5,599,18,VU,wfd6,f,disfigured,circle,1,704.2765957446809,211.01676238050476,47
408,real_b,topright,diff,b,6,673,18,VU,wfn6,f,typical,circle,1,704.2765957446809,211.01676238050476,47
408,real_b,bottomleft,diff,b,9,565,23,VU,wmn8,m,typical,square,1,704.2765957446809,211.01676238050476,47
408,real_b,topleft,diff,b,12,735,18,VU,wfd7,f,disfigured,circle,1,704.2765957446809,211.01676238050476,47
408,real_b,topright,diff,b,16,721,18,VU,wfd8,f,disfigured,circle,1,704.2765957446809,211.01676238050476,47
408,real_b,bottomleft,diff,b,17,711,18,VU,wmd6,m,disfigured,circle,1,704.2765957446809,211.01676238050476,47
408,real_b,topleft,diff,b,18,533,18,VU,wmn6,m,typical,circle,1,704.2765957446809,211.01676238050476,47
408,real_b,bottomright,diff,b,19,578,23,VU,wfn8,f,typical,square,1,704.2765957446809,211.01676238050476,47
408,real_b,bottomleft,diff,b,20,652,23,VU,wfn7,f,typical,square,1,704.2765957446809,211.01676238050476,47
408,real_c,bottomleft,diff,c,1,591,18,VU,wmd5,m,disfigured,circle,1,704.2765957446809,211.01676238050476,47
408,real_c,bottomleft,diff,c,2,514,18,VU,wfn3,f,typical,circle,1,704.2765957446809,211.01676238050476,47
408,real_c,topleft,diff,c,5,530,18,VU,wfd3,f,disfigured,circle,1,704.2765957446809,211.01676238050476,47
408,real_c,topleft,diff,c,6,455,18,VU,wmn5,m,typical,circle,1,704.2765957446809,211.01676238050476,47
408,real_c,topright,diff,c,7,567,18,VU,wfn5,f,typical,circle,1,704.2765957446809,211.01676238050476,47
408,real_c,bottomright,diff,c,8,530,18,VU,wmd3,m,disfigured,circle,1,704.2765957446809,211.01676238050476,47
408,real_c,bottomleft,diff,c,9,695,23,VU,wfd4,f,disfigured,square,1,704.2765957446809,211.01676238050476,47
408,real_c,bottomright,diff,c,11,748,18,VU,wmn4,m,typical,circle,1,704.2765957446809,211.01676238050476,47
408,real_c,topright,diff,c,13,650,18,VU,wmn3,m,typical,circle,1,704.2765957446809,211.01676238050476,47
408,real_c,topleft,diff,c,14,746,23,VU,wfn4,f,typical,square,1,704.2765957446809,211.01676238050476,47
408,real_c,topright,diff,c,18,559,18,VU,wmd4,m,disfigured,circle,1,704.2765957446809,211.01676238050476,47
408,real_c,bottomright,diff,c,20,539,18,VU,wfd5,f,disfigured,circle,1,704.2765957446809,211.01676238050476,47
408,real_d,bottomleft,diff,d,1,1143,18,VU,wmd8,m,disfigured,circle,1,704.2765957446809,211.01676238050476,47
408,real_d,topright,diff,d,7,649,18,VU,wfn8,f,typical,circle,1,704.2765957446809,211.01676238050476,47
408,real_d,topright,diff,d,8,745,23,VU,wmd10,m,disfigured,square,1,704.2765957446809,211.01676238050476,47
408,real_d,topright,diff,d,9,709,23,VU,wfd9,f,disfigured,square,1,704.2765957446809,211.01676238050476,47
408,real_d,bottomright,diff,d,10,595,23,VU,wfd8,f,disfigured,square,1,704.2765957446809,211.01676238050476,47
408,real_d,bottomleft,diff,d,11,693,18,VU,wmn9,m,typical,circle,1,704.2765957446809,211.01676238050476,47
408,real_d,bottomright,diff,d,12,820,23,VU,wmn10,m,typical,square,1,704.2765957446809,211.01676238050476,47
408,real_d,topleft,diff,d,13,597,23,VU,wmd9,m,disfigured,square,1,704.2765957446809,211.01676238050476,47
408,real_d,bottomleft,diff,d,15,532,18,VU,wfd10,f,disfigured,circle,1,704.2765957446809,211.01676238050476,47
408,real_d,topleft,diff,d,16,738,18,VU,wmn8,m,typical,circle,1,704.2765957446809,211.01676238050476,47
408,real_d,bottomright,diff,d,18,678,23,VU,wfn9,f,typical,square,1,704.2765957446809,211.01676238050476,47
408,real_d,topleft,diff,d,20,1337.326882886195,23,VU,wfn10,f,typical,square,1,704.2765957446809,211.01676238050476,47
409,real_a,bottomright,diff,a,3,527,18,VU,wmd1,m,disfigured,circle,1,656.0851063829788,166.92875723118922,47
409,real_a,topright,diff,a,4,885,23,VU,wfd2,f,disfigured,square,1,656.0851063829788,166.92875723118922,47
409,real_a,bottomleft,diff,a,6,639,18,VU,wfd3,f,disfigured,circle,1,656.0851063829788,166.92875723118922,47
409,real_a,topleft,diff,a,8,538,18,VU,wfn3,f,typical,circle,1,656.0851063829788,166.92875723118922,47
409,real_a,topright,diff,a,9,614,23,VU,wmn1,m,typical,square,1,656.0851063829788,166.92875723118922,47
409,real_a,bottomright,diff,a,12,656,18,VU,wfn2,f,typical,circle,1,656.0851063829788,166.92875723118922,47
409,real_a,topleft,diff,a,14,346,23,VU,wmd2,m,disfigured,square,1,656.0851063829788,166.92875723118922,47
409,real_a,bottomright,diff,a,16,603,23,VU,wmn3,m,typical,square,1,656.0851063829788,166.92875723118922,47
409,real_a,topright,diff,a,17,477,18,VU,wmd3,m,disfigured,circle,1,656.0851063829788,166.92875723118922,47
409,real_a,bottomleft,diff,a,19,670,18,VU,wmn2,m,typical,circle,1,656.0851063829788,166.92875723118922,47
409,real_a,topleft,diff,a,20,766,18,VU,wfd1,f,disfigured,circle,1,656.0851063829788,166.92875723118922,47
409,real_b,topright,diff,b,2,543,23,VU,wmn7,m,typical,square,1,656.0851063829788,166.92875723118922,47
409,real_b,bottomleft,diff,b,3,764,18,VU,wmn8,m,typical,circle,1,656.0851063829788,166.92875723118922,47
409,real_b,bottomright,diff,b,5,627,23,VU,wfn8,f,typical,square,1,656.0851063829788,166.92875723118922,47
409,real_b,bottomleft,diff,b,6,725,23,VU,wmd6,m,disfigured,square,1,656.0851063829788,166.92875723118922,47
409,real_b,bottomright,diff,b,7,1156.8713780765465,18,VU,wmd7,m,disfigured,circle,1,656.0851063829788,166.92875723118922,47
409,real_b,bottomright,diff,b,10,671,23,VU,wfd6,f,disfigured,square,1,656.0851063829788,166.92875723118922,47
409,real_b,bottomleft,diff,b,11,487,18,VU,wfn7,f,typical,circle,1,656.0851063829788,166.92875723118922,47
409,real_b,topleft,diff,b,12,709,18,VU,wmd8,m,disfigured,circle,1,656.0851063829788,166.92875723118922,47
409,real_b,topleft,diff,b,15,689,18,VU,wfd7,f,disfigured,circle,1,656.0851063829788,166.92875723118922,47
409,real_b,topright,diff,b,16,495,18,VU,wfd8,f,disfigured,circle,1,656.0851063829788,166.92875723118922,47
409,real_b,topleft,diff,b,18,595,18,VU,wmn6,m,typical,circle,1,656.0851063829788,166.92875723118922,47
409,real_b,topright,diff,b,19,822,23,VU,wfn6,f,typical,square,1,656.0851063829788,166.92875723118922,47
409,real_c,topleft,diff,c,1,697,23,VU,wfn4,f,typical,square,1,656.0851063829788,166.92875723118922,47
409,real_c,topright,diff,c,5,587,23,VU,wfn5,f,typical,square,1,656.0851063829788,166.92875723118922,47
409,real_c,topleft,diff,c,6,598,23,VU,wfd3,f,disfigured,square,1,656.0851063829788,166.92875723118922,47
409,real_c,bottomright,diff,c,7,600,23,VU,wfd5,f,disfigured,square,1,656.0851063829788,166.92875723118922,47
409,real_c,bottomright,diff,c,10,538,18,VU,wmd3,m,disfigured,circle,1,656.0851063829788,166.92875723118922,47
409,real_c,bottomleft,diff,c,11,502,18,VU,wfd4,f,disfigured,circle,1,656.0851063829788,166.92875723118922,47
409,real_c,bottomleft,diff,c,12,580,23,VU,wmd5,m,disfigured,square,1,656.0851063829788,166.92875723118922,47
409,real_c,topright,diff,c,14,624,23,VU,wmd4,m,disfigured,square,1,656.0851063829788,166.92875723118922,47
409,real_c,topleft,diff,c,16,635,23,VU,wmn5,m,typical,square,1,656.0851063829788,166.92875723118922,47
409,real_c,topright,diff,c,17,612,18,VU,wmn3,m,typical,circle,1,656.0851063829788,166.92875723118922,47
409,real_c,bottomright,diff,c,18,718,18,VU,wmn4,m,typical,circle,1,656.0851063829788,166.92875723118922,47
409,real_c,bottomleft,diff,c,20,818,23,VU,wfn3,f,typical,square,1,656.0851063829788,166.92875723118922,47
409,real_d,bottomleft,diff,d,4,626,18,VU,wfd10,f,disfigured,circle,1,656.0851063829788,166.92875723118922,47
409,real_d,bottomleft,diff,d,5,555,18,VU,wmn9,m,typical,circle,1,656.0851063829788,166.92875723118922,47
409,real_d,bottomright,diff,d,6,687,23,VU,wfd8,f,disfigured,square,1,656.0851063829788,166.92875723118922,47
409,real_d,topleft,diff,d,8,539,23,VU,wmd9,m,disfigured,square,1,656.0851063829788,166.92875723118922,47
409,real_d,bottomleft,diff,d,9,863,23,VU,wmd8,m,disfigured,square,1,656.0851063829788,166.92875723118922,47
409,real_d,topright,diff,d,10,551,18,VU,wmd10,m,disfigured,circle,1,656.0851063829788,166.92875723118922,47
409,real_d,topright,diff,d,12,647,18,VU,wfd9,f,disfigured,circle,1,656.0851063829788,166.92875723118922,47
409,real_d,bottomright,diff,d,13,663,23,VU,wmn10,m,typical,square,1,656.0851063829788,166.92875723118922,47
409,real_d,topleft,diff,d,14,703,18,VU,wmn8,m,typical,circle,1,656.0851063829788,166.92875723118922,47
409,real_d,topright,diff,d,15,1045,18,VU,wfn8,f,typical,circle,1,656.0851063829788,166.92875723118922,47
409,real_d,topleft,diff,d,19,753,18,VU,wfn10,f,typical,circle,1,656.0851063829788,166.92875723118922,47
409,real_d,bottomright,diff,d,20,445,18,VU,wfn9,f,typical,circle,1,656.0851063829788,166.92875723118922,47
410,real_a,bottomleft,diff,a,2,737,23,VU,wfn1,f,typical,square,1,709.5111111111111,202.8441656926705,45
410,real_a,topleft,diff,a,4,675,23,VU,wmd2,m,disfigured,square,1,709.5111111111111,202.8441656926705,45
410,real_a,bottomright,diff,a,6,648,18,VU,wmn3,m,typical,circle,1,709.5111111111111,202.8441656926705,45
410,real_a,topright,diff,a,7,713,23,VU,wfd2,f,disfigured,square,1,709.5111111111111,202.8441656926705,45
410,real_a,bottomright,diff,a,8,399,23,VU,wmd1,m,disfigured,square,1,709.5111111111111,202.8441656926705,45
410,real_a,topleft,diff,a,11,1147,18,VU,wfd1,f,disfigured,circle,1,709.5111111111111,202.8441656926705,45
410,real_a,topright,diff,a,14,973,23,VU,wmn1,m,typical,square,1,709.5111111111111,202.8441656926705,45
410,real_a,topright,diff,a,15,760,18,VU,wmd3,m,disfigured,circle,1,709.5111111111111,202.8441656926705,45
410,real_a,topleft,diff,a,16,676,18,VU,wfn3,f,typical,circle,1,709.5111111111111,202.8441656926705,45
410,real_a,bottomleft,diff,a,19,946,18,VU,wmn2,m,typical,circle,1,709.5111111111111,202.8441656926705,45
410,real_a,bottomleft,diff,a,20,462,23,VU,wfd3,f,disfigured,square,1,709.5111111111111,202.8441656926705,45
410,real_b,topright,diff,b,2,646,18,VU,wfn6,f,typical,circle,1,709.5111111111111,202.8441656926705,45
410,real_b,topright,diff,b,3,1087,18,VU,wfd8,f,disfigured,circle,1,709.5111111111111,202.8441656926705,45
410,real_b,topleft,diff,b,4,598,23,VU,wfd7,f,disfigured,square,1,709.5111111111111,202.8441656926705,45
410,real_b,bottomleft,diff,b,5,896,18,VU,wmn8,m,typical,circle,1,709.5111111111111,202.8441656926705,45
410,real_b,bottomright,diff,b,6,678,23,VU,wfd6,f,disfigured,square,1,709.5111111111111,202.8441656926705,45
410,real_b,bottomright,diff,b,7,605,23,VU,wmd7,m,disfigured,square,1,709.5111111111111,202.8441656926705,45
410,real_b,bottomleft,diff,b,10,793,23,VU,wmd6,m,disfigured,square,1,709.5111111111111,202.8441656926705,45
410,real_b,topleft,diff,b,11,508,18,VU,wmn6,m,typical,circle,1,709.5111111111111,202.8441656926705,45
410,real_b,topleft,diff,b,13,1009,18,VU,wmd8,m,disfigured,circle,1,709.5111111111111,202.8441656926705,45
410,real_b,topright,diff,b,17,750,23,VU,wmn7,m,typical,square,1,709.5111111111111,202.8441656926705,45
410,real_b,bottomright,diff,b,18,522,18,VU,wfn8,f,typical,circle,1,709.5111111111111,202.8441656926705,45
410,real_c,topright,diff,c,1,696,18,VU,wmn3,m,typical,circle,1,709.5111111111111,202.8441656926705,45
410,real_c,bottomleft,diff,c,2,574,23,VU,wfd4,f,disfigured,square,1,709.5111111111111,202.8441656926705,45
410,real_c,topleft,diff,c,3,641,23,VU,wmn5,m,typical,square,1,709.5111111111111,202.8441656926705,45
410,real_c,bottomright,diff,c,4,762,23,VU,wmn4,m,typical,square,1,709.5111111111111,202.8441656926705,45
410,real_c,bottomleft,diff,c,5,606,23,VU,wfn3,f,typical,square,1,709.5111111111111,202.8441656926705,45
410,real_c,topright,diff,c,10,881,23,VU,wmd4,m,disfigured,square,1,709.5111111111111,202.8441656926705,45
410,real_c,bottomright,diff,c,12,918,23,VU,wfd5,f,disfigured,square,1,709.5111111111111,202.8441656926705,45
410,real_c,bottomleft,diff,c,13,1084,23,VU,wmd5,m,disfigured,square,1,709.5111111111111,202.8441656926705,45
410,real_c,topleft,diff,c,15,867,23,VU,wfn4,f,typical,square,1,709.5111111111111,202.8441656926705,45
410,real_c,topright,diff,c,18,829,23,VU,wfn5,f,typical,square,1,709.5111111111111,202.8441656926705,45
410,real_c,topleft,diff,c,20,409,23,VU,wfd3,f,disfigured,square,1,709.5111111111111,202.8441656926705,45
410,real_d,topleft,diff,d,1,556,23,VU,wfn10,f,typical,square,1,709.5111111111111,202.8441656926705,45
410,real_d,topleft,diff,d,2,1208,18,VU,wmn8,m,typical,circle,1,709.5111111111111,202.8441656926705,45
410,real_d,bottomright,diff,d,3,610,18,VU,wfd8,f,disfigured,circle,1,709.5111111111111,202.8441656926705,45
410,real_d,bottomleft,diff,d,6,545,23,VU,wmd8,m,disfigured,square,1,709.5111111111111,202.8441656926705,45
410,real_d,bottomleft,diff,d,7,446,18,VU,wmn9,m,typical,circle,1,709.5111111111111,202.8441656926705,45
410,real_d,topright,diff,d,9,476,23,VU,wfd9,f,disfigured,square,1,709.5111111111111,202.8441656926705,45
410,real_d,bottomright,diff,d,10,788,23,VU,wmn10,m,typical,square,1,709.5111111111111,202.8441656926705,45
410,real_d,bottomright,diff,d,11,590,18,VU,wfn9,f,typical,circle,1,709.5111111111111,202.8441656926705,45
410,real_d,topright,diff,d,13,457,23,VU,wmd10,m,disfigured,square,1,709.5111111111111,202.8441656926705,45
410,real_d,topright,diff,d,14,633,18,VU,wfn8,f,typical,circle,1,709.5111111111111,202.8441656926705,45
410,real_d,topleft,diff,d,15,585,23,VU,wmd9,m,disfigured,square,1,709.5111111111111,202.8441656926705,45
410,real_d,bottomleft,diff,d,20,539,23,VU,wfd10,f,disfigured,square,1,709.5111111111111,202.8441656926705,45
413,real_a,topleft,diff,a,3,520,18,VU,wfn3,f,typical,circle,1,492.72093023255815,58.62119135009575,43
413,real_a,topright,diff,a,7,474,18,VU,wmn1,m,typical,circle,1,492.72093023255815,58.62119135009575,43
413,real_a,bottomright,diff,a,11,514,18,VU,wmd1,m,disfigured,circle,1,492.72093023255815,58.62119135009575,43
413,real_a,bottomleft,diff,a,13,476,23,VU,wfn1,f,typical,square,1,492.72093023255815,58.62119135009575,43
413,real_a,topright,diff,a,14,395,18,VU,wmd3,m,disfigured,circle,1,492.72093023255815,58.62119135009575,43
413,real_a,topright,diff,a,15,438,18,VU,wfd2,f,disfigured,circle,1,492.72093023255815,58.62119135009575,43
413,real_a,bottomright,diff,a,16,366,18,VU,wfn2,f,typical,circle,1,492.72093023255815,58.62119135009575,43
413,real_a,topleft,diff,a,18,521,18,VU,wfd1,f,disfigured,circle,1,492.72093023255815,58.62119135009575,43
413,real_a,bottomleft,diff,a,20,490,23,VU,wmn2,m,typical,square,1,492.72093023255815,58.62119135009575,43
413,real_b,topright,diff,b,2,559,23,VU,wmn7,m,typical,square,1,492.72093023255815,58.62119135009575,43
413,real_b,bottomleft,diff,b,6,500,18,VU,wmd6,m,disfigured,circle,1,492.72093023255815,58.62119135009575,43
413,real_b,bottomleft,diff,b,8,531,18,VU,wfn7,f,typical,circle,1,492.72093023255815,58.62119135009575,43
413,real_b,topright,diff,b,9,536,23,VU,wfn6,f,typical,square,1,492.72093023255815,58.62119135009575,43
413,real_b,topleft,diff,b,11,469,18,VU,wmn6,m,typical,circle,1,492.72093023255815,58.62119135009575,43
413,real_b,bottomright,diff,b,13,562,23,VU,wmd7,m,disfigured,square,1,492.72093023255815,58.62119135009575,43
413,real_b,topright,diff,b,14,542,23,VU,wfd8,f,disfigured,square,1,492.72093023255815,58.62119135009575,43
413,real_b,topleft,diff,b,15,483,18,VU,wfd7,f,disfigured,circle,1,492.72093023255815,58.62119135009575,43
413,real_b,bottomleft,diff,b,17,502,23,VU,wmn8,m,typical,square,1,492.72093023255815,58.62119135009575,43
413,real_b,bottomright,diff,b,20,602,23,VU,wfn8,f,typical,square,1,492.72093023255815,58.62119135009575,43
413,real_c,bottomleft,diff,c,2,591,23,VU,wfn3,f,typical,square,1,492.72093023255815,58.62119135009575,43
413,real_c,bottomright,diff,c,3,426,18,VU,wmn4,m,typical,circle,1,492.72093023255815,58.62119135009575,43
413,real_c,bottomleft,diff,c,5,505,18,VU,wmd5,m,disfigured,circle,1,492.72093023255815,58.62119135009575,43
413,real_c,topright,diff,c,6,495,23,VU,wmd4,m,disfigured,square,1,492.72093023255815,58.62119135009575,43
413,real_c,topright,diff,c,9,479,23,VU,wfn5,f,typical,square,1,492.72093023255815,58.62119135009575,43
413,real_c,topleft,diff,c,10,454,18,VU,wmn5,m,typical,circle,1,492.72093023255815,58.62119135009575,43
413,real_c,topright,diff,c,11,454,18,VU,wmn3,m,typical,circle,1,492.72093023255815,58.62119135009575,43
413,real_c,bottomright,diff,c,12,462,18,VU,wmd3,m,disfigured,circle,1,492.72093023255815,58.62119135009575,43
413,real_c,topleft,diff,c,16,528,23,VU,wfn4,f,typical,square,1,492.72093023255815,58.62119135009575,43
413,real_c,topleft,diff,c,17,557,23,VU,wfd3,f,disfigured,square,1,492.72093023255815,58.62119135009575,43
413,real_c,bottomright,diff,c,18,497,23,VU,wfd5,f,disfigured,square,1,492.72093023255815,58.62119135009575,43
413,real_c,bottomleft,diff,c,19,487,23,VU,wfd4,f,disfigured,square,1,492.72093023255815,58.62119135009575,43
413,real_d,bottomright,diff,d,2,491,23,VU,wmn10,m,typical,square,1,492.72093023255815,58.62119135009575,43
413,real_d,topright,diff,d,3,394,18,VU,wfn8,f,typical,circle,1,492.72093023255815,58.62119135009575,43
413,real_d,topleft,diff,d,4,516,18,VU,wmd9,m,disfigured,circle,1,492.72093023255815,58.62119135009575,43
413,real_d,bottomleft,diff,d,5,434,18,VU,wfd10,f,disfigured,circle,1,492.72093023255815,58.62119135009575,43
413,real_d,topright,diff,d,7,651,23,VU,wmd10,m,disfigured,square,1,492.72093023255815,58.62119135009575,43
413,real_d,topleft,diff,d,10,398,18,VU,wfn10,f,typical,circle,1,492.72093023255815,58.62119135009575,43
413,real_d,bottomright,diff,d,11,552,23,VU,wfd8,f,disfigured,square,1,492.72093023255815,58.62119135009575,43
413,real_d,topleft,diff,d,15,422,23,VU,wmn8,m,typical,square,1,492.72093023255815,58.62119135009575,43
413,real_d,bottomleft,diff,d,16,455,23,VU,wmd8,m,disfigured,square,1,492.72093023255815,58.62119135009575,43
413,real_d,bottomright,diff,d,17,504,18,VU,wfn9,f,typical,circle,1,492.72093023255815,58.62119135009575,43
413,real_d,topright,diff,d,18,437,23,VU,wfd9,f,disfigured,square,1,492.72093023255815,58.62119135009575,43
413,real_d,bottomleft,diff,d,20,518,18,VU,wmn9,m,typical,circle,1,492.72093023255815,58.62119135009575,43
414,real_a,topright,diff,a,2,457,18,VU,wmn1,m,typical,circle,1,659.9574468085107,188.74931125089523,47
414,real_a,bottomright,diff,a,4,826,23,VU,wmn3,m,typical,square,1,659.9574468085107,188.74931125089523,47
414,real_a,topleft,diff,a,6,620,23,VU,wfd1,f,disfigured,square,1,659.9574468085107,188.74931125089523,47
414,real_a,topleft,diff,a,8,686,23,VU,wfn3,f,typical,square,1,659.9574468085107,188.74931125089523,47
414,real_a,bottomleft,diff,a,10,630,23,VU,wmn2,m,typical,square,1,659.9574468085107,188.74931125089523,47
414,real_a,bottomleft,diff,a,11,775,18,VU,wfn1,f,typical,circle,1,659.9574468085107,188.74931125089523,47
414,real_a,topright,diff,a,14,524,18,VU,wfd2,f,disfigured,circle,1,659.9574468085107,188.74931125089523,47
414,real_a,topright,diff,a,15,665,23,VU,wmd3,m,disfigured,square,1,659.9574468085107,188.74931125089523,47
414,real_a,bottomright,diff,a,17,770,23,VU,wfn2,f,typical,square,1,659.9574468085107,188.74931125089523,47
414,real_a,topleft,diff,a,18,909,23,VU,wmd2,m,disfigured,square,1,659.9574468085107,188.74931125089523,47
414,real_a,bottomright,diff,a,19,1115,23,VU,wmd1,m,disfigured,square,1,659.9574468085107,188.74931125089523,47
414,real_a,bottomleft,diff,a,20,1025,23,VU,wfd3,f,disfigured,square,1,659.9574468085107,188.74931125089523,47
414,real_b,topleft,diff,b,2,551,18,VU,wmn6,m,typical,circle,1,659.9574468085107,188.74931125089523,47
414,real_b,bottomright,diff,b,3,619,23,VU,wmd7,m,disfigured,square,1,659.9574468085107,188.74931125089523,47
414,real_b,bottomleft,diff,b,7,485,23,VU,wfn7,f,typical,square,1,659.9574468085107,188.74931125089523,47
414,real_b,topleft,diff,b,8,716,23,VU,wmd8,m,disfigured,square,1,659.9574468085107,188.74931125089523,47
414,real_b,topright,diff,b,9,585,23,VU,wfd8,f,disfigured,square,1,659.9574468085107,188.74931125089523,47
414,real_b,topleft,diff,b,11,759,18,VU,wfd7,f,disfigured,circle,1,659.9574468085107,188.74931125089523,47
414,real_b,bottomleft,diff,b,12,531,18,VU,wmn8,m,typical,circle,1,659.9574468085107,188.74931125089523,47
414,real_b,topright,diff,b,13,496,18,VU,wfn6,f,typical,circle,1,659.9574468085107,188.74931125089523,47
414,real_b,bottomleft,diff,b,14,583,23,VU,wmd6,m,disfigured,square,1,659.9574468085107,188.74931125089523,47
414,real_b,topright,diff,b,15,505,18,VU,wmn7,m,typical,circle,1,659.9574468085107,188.74931125089523,47
414,real_b,bottomright,diff,b,18,537,18,VU,wfd6,f,disfigured,circle,1,659.9574468085107,188.74931125089523,47
414,real_b,bottomright,diff,b,19,486,23,VU,wfn8,f,typical,square,1,659.9574468085107,188.74931125089523,47
414,real_c,topleft,diff,c,1,729,23,VU,wfn4,f,typical,square,1,659.9574468085107,188.74931125089523,47
414,real_c,topright,diff,c,2,574,23,VU,wmd4,m,disfigured,square,1,659.9574468085107,188.74931125089523,47
414,real_c,topleft,diff,c,5,700,23,VU,wmn5,m,typical,square,1,659.9574468085107,188.74931125089523,47
414,real_c,topright,diff,c,6,586,23,VU,wmn3,m,typical,square,1,659.9574468085107,188.74931125089523,47
414,real_c,bottomright,diff,c,8,553,18,VU,wmn4,m,typical,circle,1,659.9574468085107,188.74931125089523,47
414,real_c,bottomleft,diff,c,11,663,18,VU,wmd5,m,disfigured,circle,1,659.9574468085107,188.74931125089523,47
414,real_c,bottomright,diff,c,12,575,23,VU,wfd5,f,disfigured,square,1,659.9574468085107,188.74931125089523,47
414,real_c,bottomright,diff,c,13,1226.2053805611963,23,VU,wmd3,m,disfigured,square,1,659.9574468085107,188.74931125089523,47
414,real_c,topleft,diff,c,14,805,18,VU,wfd3,f,disfigured,circle,1,659.9574468085107,188.74931125089523,47
414,real_c,bottomleft,diff,c,16,1013,18,VU,wfd4,f,disfigured,circle,1,659.9574468085107,188.74931125089523,47
414,real_c,topright,diff,c,18,616,23,VU,wfn5,f,typical,square,1,659.9574468085107,188.74931125089523,47
414,real_d,topleft,diff,d,1,596,18,VU,wmd9,m,disfigured,circle,1,659.9574468085107,188.74931125089523,47
414,real_d,bottomleft,diff,d,2,623,18,VU,wmn9,m,typical,circle,1,659.9574468085107,188.74931125089523,47
414,real_d,topleft,diff,d,5,359,23,VU,wfn10,f,typical,square,1,659.9574468085107,188.74931125089523,47
414,real_d,bottomright,diff,d,6,523,18,VU,wfd8,f,disfigured,circle,1,659.9574468085107,188.74931125089523,47
414,real_d,topright,diff,d,8,674,18,VU,wfn8,f,typical,circle,1,659.9574468085107,188.74931125089523,47
414,real_d,topright,diff,d,11,575,23,VU,wfd9,f,disfigured,square,1,659.9574468085107,188.74931125089523,47
414,real_d,bottomleft,diff,d,12,514,18,VU,wfd10,f,disfigured,circle,1,659.9574468085107,188.74931125089523,47
414,real_d,bottomright,diff,d,13,760,18,VU,wmn10,m,typical,circle,1,659.9574468085107,188.74931125089523,47
414,real_d,bottomleft,diff,d,14,508,18,VU,wmd8,m,disfigured,circle,1,659.9574468085107,188.74931125089523,47
414,real_d,topleft,diff,d,15,738,18,VU,wmn8,m,typical,circle,1,659.9574468085107,188.74931125089523,47
414,real_d,topright,diff,d,16,495,23,VU,wmd10,m,disfigured,square,1,659.9574468085107,188.74931125089523,47
414,real_d,bottomright,diff,d,20,590,18,VU,wfn9,f,typical,circle,1,659.9574468085107,188.74931125089523,47
416,real_a,bottomright,diff,a,1,600,23,VU,wmd1,m,disfigured,square,1,646.8571428571429,143.52437906766775,42
416,real_a,topleft,diff,a,2,674,23,VU,wfn3,f,typical,square,1,646.8571428571429,143.52437906766775,42
416,real_a,bottomleft,diff,a,3,746,23,VU,wmn2,m,typical,square,1,646.8571428571429,143.52437906766775,42
416,real_a,topright,diff,a,8,640,23,VU,wmd3,m,disfigured,square,1,646.8571428571429,143.52437906766775,42
416,real_a,bottomright,diff,a,10,1077.4302800601463,18,VU,wmn3,m,typical,circle,1,646.8571428571429,143.52437906766775,42
416,real_a,bottomleft,diff,a,11,505,23,VU,wfd3,f,disfigured,square,1,646.8571428571429,143.52437906766775,42
416,real_a,topleft,diff,a,12,559,23,VU,wmd2,m,disfigured,square,1,646.8571428571429,143.52437906766775,42
416,real_a,bottomleft,diff,a,13,659,18,VU,wfn1,f,typical,circle,1,646.8571428571429,143.52437906766775,42
416,real_a,topright,diff,a,16,649,18,VU,wmn1,m,typical,circle,1,646.8571428571429,143.52437906766775,42
416,real_a,bottomright,diff,a,20,725,23,VU,wfn2,f,typical,square,1,646.8571428571429,143.52437906766775,42
416,real_b,bottomleft,diff,b,1,769,23,VU,wmd6,m,disfigured,square,1,646.8571428571429,143.52437906766775,42
416,real_b,topleft,diff,b,2,452,18,VU,wfd7,f,disfigured,circle,1,646.8571428571429,143.52437906766775,42
416,real_b,topleft,diff,b,3,620,18,VU,wmn6,m,typical,circle,1,646.8571428571429,143.52437906766775,42
416,real_b,topright,diff,b,4,605,23,VU,wfn6,f,typical,square,1,646.8571428571429,143.52437906766775,42
416,real_b,topleft,diff,b,5,503,23,VU,wmd8,m,disfigured,square,1,646.8571428571429,143.52437906766775,42
416,real_b,bottomleft,diff,b,6,717,23,VU,wmn8,m,typical,square,1,646.8571428571429,143.52437906766775,42
416,real_b,topright,diff,b,12,628,23,VU,wfd8,f,disfigured,square,1,646.8571428571429,143.52437906766775,42
416,real_b,bottomright,diff,b,14,625,23,VU,wfn8,f,typical,square,1,646.8571428571429,143.52437906766775,42
416,real_b,bottomright,diff,b,17,759,18,VU,wfd6,f,disfigured,circle,1,646.8571428571429,143.52437906766775,42
416,real_b,bottomleft,diff,b,19,465,23,VU,wfn7,f,typical,square,1,646.8571428571429,143.52437906766775,42
416,real_b,topright,diff,b,20,497,23,VU,wmn7,m,typical,square,1,646.8571428571429,143.52437906766775,42
416,real_c,topright,diff,c,2,596,23,VU,wmd4,m,disfigured,square,1,646.8571428571429,143.52437906766775,42
416,real_c,topleft,diff,c,5,721,23,VU,wfn4,f,typical,square,1,646.8571428571429,143.52437906766775,42
416,real_c,topright,diff,c,6,630,18,VU,wfn5,f,typical,circle,1,646.8571428571429,143.52437906766775,42
416,real_c,bottomleft,diff,c,7,680,23,VU,wfn3,f,typical,square,1,646.8571428571429,143.52437906766775,42
416,real_c,bottomleft,diff,c,9,528,18,VU,wmd5,m,disfigured,circle,1,646.8571428571429,143.52437906766775,42
416,real_c,topleft,diff,c,10,645,18,VU,wmn5,m,typical,circle,1,646.8571428571429,143.52437906766775,42
416,real_c,bottomright,diff,c,11,597,23,VU,wmn4,m,typical,square,1,646.8571428571429,143.52437906766775,42
416,real_c,topright,diff,c,17,523,18,VU,wmn3,m,typical,circle,1,646.8571428571429,143.52437906766775,42
416,real_c,bottomright,diff,c,18,529,18,VU,wmd3,m,disfigured,circle,1,646.8571428571429,143.52437906766775,42
416,real_c,bottomleft,diff,c,20,421,23,VU,wfd4,f,disfigured,square,1,646.8571428571429,143.52437906766775,42
416,real_d,topright,diff,d,3,825,23,VU,wfn8,f,typical,square,1,646.8571428571429,143.52437906766775,42
416,real_d,topright,diff,d,4,587,18,VU,wmd10,m,disfigured,circle,1,646.8571428571429,143.52437906766775,42
416,real_d,bottomright,diff,d,6,661,23,VU,wmn10,m,typical,square,1,646.8571428571429,143.52437906766775,42
416,real_d,bottomright,diff,d,7,788,23,VU,wfn9,f,typical,square,1,646.8571428571429,143.52437906766775,42
416,real_d,topright,diff,d,9,956,18,VU,wfd9,f,disfigured,circle,1,646.8571428571429,143.52437906766775,42
416,real_d,topleft,diff,d,12,674,23,VU,wfn10,f,typical,square,1,646.8571428571429,143.52437906766775,42
416,real_d,topleft,diff,d,13,530,18,VU,wmd9,m,disfigured,circle,1,646.8571428571429,143.52437906766775,42
416,real_d,bottomleft,diff,d,14,775,18,VU,wmd8,m,disfigured,circle,1,646.8571428571429,143.52437906766775,42
416,real_d,bottomleft,diff,d,17,596,23,VU,wfd10,f,disfigured,square,1,646.8571428571429,143.52437906766775,42
416,real_d,bottomright,diff,d,18,798,23,VU,wfd8,f,disfigured,square,1,646.8571428571429,143.52437906766775,42
416,real_d,topleft,diff,d,19,504,18,VU,wmn8,m,typical,circle,1,646.8571428571429,143.52437906766775,42
418,real_a,topright,diff,a,2,1399.8724080521454,18,VU,wmd3,m,disfigured,circle,1,621.7659574468086,259.3688168684456,47
418,real_a,bottomright,diff,a,3,738,23,VU,wfn2,f,typical,square,1,621.7659574468086,259.3688168684456,47
418,real_a,topleft,diff,a,4,639,23,VU,wfn3,f,typical,square,1,621.7659574468086,259.3688168684456,47
418,real_a,topleft,diff,a,5,511,18,VU,wmd2,m,disfigured,circle,1,621.7659574468086,259.3688168684456,47
418,real_a,bottomright,diff,a,6,485,18,VU,wmn3,m,typical,circle,1,621.7659574468086,259.3688168684456,47
418,real_a,bottomleft,diff,a,10,621,18,VU,wfd3,f,disfigured,circle,1,621.7659574468086,259.3688168684456,47
418,real_a,topleft,diff,a,11,567,18,VU,wfd1,f,disfigured,circle,1,621.7659574468086,259.3688168684456,47
418,real_a,topright,diff,a,12,619,23,VU,wfd2,f,disfigured,square,1,621.7659574468086,259.3688168684456,47
418,real_a,bottomleft,diff,a,13,636,23,VU,wmn2,m,typical,square,1,621.7659574468086,259.3688168684456,47
418,real_a,topright,diff,a,14,517,23,VU,wmn1,m,typical,square,1,621.7659574468086,259.3688168684456,47
418,real_a,bottomright,diff,a,18,811,18,VU,wmd1,m,disfigured,circle,1,621.7659574468086,259.3688168684456,47
418,real_a,bottomleft,diff,a,19,581,23,VU,wfn1,f,typical,square,1,621.7659574468086,259.3688168684456,47
418,real_b,topleft,diff,b,1,589,23,VU,wfd7,f,disfigured,square,1,621.7659574468086,259.3688168684456,47
418,real_b,topleft,diff,b,2,648,18,VU,wmn6,m,typical,circle,1,621.7659574468086,259.3688168684456,47
418,real_b,topright,diff,b,5,484,23,VU,wfd8,f,disfigured,square,1,621.7659574468086,259.3688168684456,47
418,real_b,topleft,diff,b,6,514,18,VU,wmd8,m,disfigured,circle,1,621.7659574468086,259.3688168684456,47
418,real_b,bottomleft,diff,b,8,494,23,VU,wmn8,m,typical,square,1,621.7659574468086,259.3688168684456,47
418,real_b,bottomright,diff,b,12,569,18,VU,wfd6,f,disfigured,circle,1,621.7659574468086,259.3688168684456,47
418,real_b,bottomleft,diff,b,13,564,23,VU,wmd6,m,disfigured,square,1,621.7659574468086,259.3688168684456,47
418,real_b,topright,diff,b,15,501,18,VU,wfn6,f,typical,circle,1,621.7659574468086,259.3688168684456,47
418,real_b,topright,diff,b,16,803,18,VU,wmn7,m,typical,circle,1,621.7659574468086,259.3688168684456,47
418,real_b,bottomright,diff,b,17,557,18,VU,wfn8,f,typical,circle,1,621.7659574468086,259.3688168684456,47
418,real_b,bottomright,diff,b,18,553,18,VU,wmd7,m,disfigured,circle,1,621.7659574468086,259.3688168684456,47
418,real_b,bottomleft,diff,b,20,607,23,VU,wfn7,f,typical,square,1,621.7659574468086,259.3688168684456,47
418,real_c,topleft,diff,c,1,477,23,VU,wfn4,f,typical,square,1,621.7659574468086,259.3688168684456,47
418,real_c,topleft,diff,c,4,1399.8724080521454,18,VU,wfd3,f,disfigured,circle,1,621.7659574468086,259.3688168684456,47
418,real_c,bottomright,diff,c,5,517,18,VU,wmn4,m,typical,circle,1,621.7659574468086,259.3688168684456,47
418,real_c,topleft,diff,c,6,634,18,VU,wmn5,m,typical,circle,1,621.7659574468086,259.3688168684456,47
418,real_c,topright,diff,c,9,685,18,VU,wmd4,m,disfigured,circle,1,621.7659574468086,259.3688168684456,47
418,real_c,topright,diff,c,10,475,23,VU,wmn3,m,typical,square,1,621.7659574468086,259.3688168684456,47
418,real_c,bottomleft,diff,c,11,506,23,VU,wfd4,f,disfigured,square,1,621.7659574468086,259.3688168684456,47
418,real_c,bottomright,diff,c,12,560,23,VU,wmd3,m,disfigured,square,1,621.7659574468086,259.3688168684456,47
418,real_c,topright,diff,c,16,519,23,VU,wfn5,f,typical,square,1,621.7659574468086,259.3688168684456,47
418,real_c,bottomleft,diff,c,17,549,18,VU,wfn3,f,typical,circle,1,621.7659574468086,259.3688168684456,47
418,real_c,bottomright,diff,c,18,601,23,VU,wfd5,f,disfigured,square,1,621.7659574468086,259.3688168684456,47
418,real_c,bottomleft,diff,c,20,596,18,VU,wmd5,m,disfigured,circle,1,621.7659574468086,259.3688168684456,47
418,real_d,topleft,diff,d,5,572,18,VU,wmd9,m,disfigured,circle,1,621.7659574468086,259.3688168684456,47
418,real_d,topright,diff,d,6,599,23,VU,wfn8,f,typical,square,1,621.7659574468086,259.3688168684456,47
418,real_d,topleft,diff,d,7,465,23,VU,wmn8,m,typical,square,1,621.7659574468086,259.3688168684456,47
418,real_d,bottomright,diff,d,8,536,18,VU,wfd8,f,disfigured,circle,1,621.7659574468086,259.3688168684456,47
418,real_d,bottomright,diff,d,9,445,18,VU,wmn10,m,typical,circle,1,621.7659574468086,259.3688168684456,47
418,real_d,topleft,diff,d,10,436,23,VU,wfn10,f,typical,square,1,621.7659574468086,259.3688168684456,47
418,real_d,bottomleft,diff,d,14,427,23,VU,wmn9,m,typical,square,1,621.7659574468086,259.3688168684456,47
418,real_d,bottomright,diff,d,16,480,23,VU,wfn9,f,typical,square,1,621.7659574468086,259.3688168684456,47
418,real_d,bottomleft,diff,d,17,535,18,VU,wmd8,m,disfigured,circle,1,621.7659574468086,259.3688168684456,47
418,real_d,topright,diff,d,19,509,23,VU,wmd10,m,disfigured,square,1,621.7659574468086,259.3688168684456,47
418,real_d,bottomleft,diff,d,20,1139,23,VU,wfd10,f,disfigured,square,1,621.7659574468086,259.3688168684456,47
420,real_a,topleft,diff,a,1,755,23,VU,wmd2,m,disfigured,square,1,636.4666666666667,159.6653602780743,45
420,real_a,topleft,diff,a,2,487,18,VU,wfd1,f,disfigured,circle,1,636.4666666666667,159.6653602780743,45
420,real_a,bottomright,diff,a,3,565,18,VU,wfn2,f,typical,circle,1,636.4666666666667,159.6653602780743,45
420,real_a,bottomleft,diff,a,4,553,18,VU,wfn1,f,typical,circle,1,636.4666666666667,159.6653602780743,45
420,real_a,bottomleft,diff,a,5,581,18,VU,wmn2,m,typical,circle,1,636.4666666666667,159.6653602780743,45
420,real_a,topright,diff,a,6,632,23,VU,wmn1,m,typical,square,1,636.4666666666667,159.6653602780743,45
420,real_a,bottomright,diff,a,8,401,18,VU,wmn3,m,typical,circle,1,636.4666666666667,159.6653602780743,45
420,real_a,topright,diff,a,9,1115.4627475008897,18,VU,wmd3,m,disfigured,circle,1,636.4666666666667,159.6653602780743,45
420,real_a,topright,diff,a,11,722,18,VU,wfd2,f,disfigured,circle,1,636.4666666666667,159.6653602780743,45
420,real_a,bottomleft,diff,a,12,607,23,VU,wfd3,f,disfigured,square,1,636.4666666666667,159.6653602780743,45
420,real_a,bottomright,diff,a,13,682,18,VU,wmd1,m,disfigured,circle,1,636.4666666666667,159.6653602780743,45
420,real_a,topleft,diff,a,17,544,23,VU,wfn3,f,typical,square,1,636.4666666666667,159.6653602780743,45
420,real_b,bottomleft,diff,b,2,638,18,VU,wmn8,m,typical,circle,1,636.4666666666667,159.6653602780743,45
420,real_b,topleft,diff,b,4,710,23,VU,wfd7,f,disfigured,square,1,636.4666666666667,159.6653602780743,45
420,real_b,bottomright,diff,b,6,561,23,VU,wfd6,f,disfigured,square,1,636.4666666666667,159.6653602780743,45
420,real_b,topright,diff,b,8,616,23,VU,wfd8,f,disfigured,square,1,636.4666666666667,159.6653602780743,45
420,real_b,topleft,diff,b,9,457,18,VU,wmn6,m,typical,circle,1,636.4666666666667,159.6653602780743,45
420,real_b,bottomright,diff,b,10,433,18,VU,wfn8,f,typical,circle,1,636.4666666666667,159.6653602780743,45
420,real_b,topright,diff,b,11,394,23,VU,wfn6,f,typical,square,1,636.4666666666667,159.6653602780743,45
420,real_b,bottomleft,diff,b,14,512,23,VU,wfn7,f,typical,square,1,636.4666666666667,159.6653602780743,45
420,real_b,topright,diff,b,16,647,18,VU,wmn7,m,typical,circle,1,636.4666666666667,159.6653602780743,45
420,real_b,bottomleft,diff,b,17,495,18,VU,wmd6,m,disfigured,circle,1,636.4666666666667,159.6653602780743,45
420,real_b,topleft,diff,b,20,709,18,VU,wmd8,m,disfigured,circle,1,636.4666666666667,159.6653602780743,45
420,real_c,topleft,diff,c,1,1007,18,VU,wmn5,m,typical,circle,1,636.4666666666667,159.6653602780743,45
420,real_c,bottomright,diff,c,5,577,18,VU,wmd3,m,disfigured,circle,1,636.4666666666667,159.6653602780743,45
420,real_c,bottomright,diff,c,7,1039,23,VU,wfd5,f,disfigured,square,1,636.4666666666667,159.6653602780743,45
420,real_c,bottomleft,diff,c,9,901,23,VU,wfd4,f,disfigured,square,1,636.4666666666667,159.6653602780743,45
420,real_c,topright,diff,c,11,520,23,VU,wfn5,f,typical,square,1,636.4666666666667,159.6653602780743,45
420,real_c,bottomright,diff,c,13,512,23,VU,wmn4,m,typical,square,1,636.4666666666667,159.6653602780743,45
420,real_c,topleft,diff,c,16,554,18,VU,wfd3,f,disfigured,circle,1,636.4666666666667,159.6653602780743,45
420,real_c,bottomleft,diff,c,18,670,18,VU,wmd5,m,disfigured,circle,1,636.4666666666667,159.6653602780743,45
420,real_c,topright,diff,c,19,662,18,VU,wmn3,m,typical,circle,1,636.4666666666667,159.6653602780743,45
420,real_c,bottomleft,diff,c,20,622,18,VU,wfn3,f,typical,circle,1,636.4666666666667,159.6653602780743,45
420,real_d,bottomright,diff,d,2,758,23,VU,wfn9,f,typical,square,1,636.4666666666667,159.6653602780743,45
420,real_d,topright,diff,d,3,586,18,VU,wfn8,f,typical,circle,1,636.4666666666667,159.6653602780743,45
420,real_d,bottomright,diff,d,5,570,23,VU,wfd8,f,disfigured,square,1,636.4666666666667,159.6653602780743,45
420,real_d,topleft,diff,d,7,629,23,VU,wfn10,f,typical,square,1,636.4666666666667,159.6653602780743,45
420,real_d,bottomleft,diff,d,8,870,23,VU,wfd10,f,disfigured,square,1,636.4666666666667,159.6653602780743,45
420,real_d,topright,diff,d,9,630,23,VU,wmd10,m,disfigured,square,1,636.4666666666667,159.6653602780743,45
420,real_d,bottomright,diff,d,10,567,23,VU,wmn10,m,typical,square,1,636.4666666666667,159.6653602780743,45
420,real_d,topleft,diff,d,12,453,18,VU,wmn8,m,typical,circle,1,636.4666666666667,159.6653602780743,45
420,real_d,topright,diff,d,14,677,23,VU,wfd9,f,disfigured,square,1,636.4666666666667,159.6653602780743,45
420,real_d,bottomleft,diff,d,15,581,23,VU,wmd8,m,disfigured,square,1,636.4666666666667,159.6653602780743,45
420,real_d,bottomleft,diff,d,16,656,23,VU,wmn9,m,typical,square,1,636.4666666666667,159.6653602780743,45
420,real_d,topleft,diff,d,17,744,23,VU,wmd9,m,disfigured,square,1,636.4666666666667,159.6653602780743,45
421,real_a,topright,diff,a,1,597,23,VU,wmd3,m,disfigured,square,1,554.3478260869565,82.30113200012752,46
421,real_a,bottomright,diff,a,2,600,23,VU,wmd1,m,disfigured,square,1,554.3478260869565,82.30113200012752,46
421,real_a,topleft,diff,a,3,418,18,VU,wfd1,f,disfigured,circle,1,554.3478260869565,82.30113200012752,46
421,real_a,topleft,diff,a,4,404,18,VU,wfn3,f,typical,circle,1,554.3478260869565,82.30113200012752,46
421,real_a,bottomright,diff,a,6,465,18,VU,wmn3,m,typical,circle,1,554.3478260869565,82.30113200012752,46
421,real_a,topright,diff,a,7,705,23,VU,wfd2,f,disfigured,square,1,554.3478260869565,82.30113200012752,46
421,real_a,bottomleft,diff,a,12,495,23,VU,wmn2,m,typical,square,1,554.3478260869565,82.30113200012752,46
421,real_a,bottomleft,diff,a,13,454,18,VU,wfd3,f,disfigured,circle,1,554.3478260869565,82.30113200012752,46
421,real_a,topright,diff,a,14,478,18,VU,wmn1,m,typical,circle,1,554.3478260869565,82.30113200012752,46
421,real_a,bottomleft,diff,a,16,476,18,VU,wfn1,f,typical,circle,1,554.3478260869565,82.30113200012752,46
421,real_a,bottomright,diff,a,17,452,18,VU,wfn2,f,typical,circle,1,554.3478260869565,82.30113200012752,46
421,real_a,topleft,diff,a,19,486,23,VU,wmd2,m,disfigured,square,1,554.3478260869565,82.30113200012752,46
421,real_b,bottomleft,diff,b,2,579,18,VU,wmn8,m,typical,circle,1,554.3478260869565,82.30113200012752,46
421,real_b,topright,diff,b,3,622,18,VU,wmn7,m,typical,circle,1,554.3478260869565,82.30113200012752,46
421,real_b,topleft,diff,b,6,620,23,VU,wmn6,m,typical,square,1,554.3478260869565,82.30113200012752,46
421,real_b,bottomright,diff,b,7,413,23,VU,wfd6,f,disfigured,square,1,554.3478260869565,82.30113200012752,46
421,real_b,topleft,diff,b,8,359,18,VU,wmd8,m,disfigured,circle,1,554.3478260869565,82.30113200012752,46
421,real_b,topleft,diff,b,13,566,23,VU,wfd7,f,disfigured,square,1,554.3478260869565,82.30113200012752,46
421,real_b,bottomright,diff,b,14,665,18,VU,wmd7,m,disfigured,circle,1,554.3478260869565,82.30113200012752,46
421,real_b,topright,diff,b,15,537,23,VU,wfd8,f,disfigured,square,1,554.3478260869565,82.30113200012752,46
421,real_b,bottomleft,diff,b,16,629,18,VU,wfn7,f,typical,circle,1,554.3478260869565,82.30113200012752,46
421,real_b,topright,diff,b,17,590,23,VU,wfn6,f,typical,square,1,554.3478260869565,82.30113200012752,46
421,real_b,bottomright,diff,b,19,608,23,VU,wfn8,f,typical,square,1,554.3478260869565,82.30113200012752,46
421,real_c,topright,diff,c,2,523,23,VU,wfn5,f,typical,square,1,554.3478260869565,82.30113200012752,46
421,real_c,topright,diff,c,3,585,23,VU,wmd4,m,disfigured,square,1,554.3478260869565,82.30113200012752,46
421,real_c,bottomright,diff,c,4,619,23,VU,wmd3,m,disfigured,square,1,554.3478260869565,82.30113200012752,46
421,real_c,topleft,diff,c,7,649,18,VU,wfn4,f,typical,circle,1,554.3478260869565,82.30113200012752,46
421,real_c,bottomright,diff,c,9,603,18,VU,wmn4,m,typical,circle,1,554.3478260869565,82.30113200012752,46
421,real_c,bottomleft,diff,c,12,522,23,VU,wfd4,f,disfigured,square,1,554.3478260869565,82.30113200012752,46
421,real_c,bottomright,diff,c,13,632,18,VU,wfd5,f,disfigured,circle,1,554.3478260869565,82.30113200012752,46
421,real_c,topright,diff,c,15,562,18,VU,wmn3,m,typical,circle,1,554.3478260869565,82.30113200012752,46
421,real_c,topleft,diff,c,16,622,18,VU,wfd3,f,disfigured,circle,1,554.3478260869565,82.30113200012752,46
421,real_c,bottomleft,diff,c,17,559,18,VU,wfn3,f,typical,circle,1,554.3478260869565,82.30113200012752,46
421,real_c,bottomleft,diff,c,18,426,23,VU,wmd5,m,disfigured,square,1,554.3478260869565,82.30113200012752,46
421,real_c,topleft,diff,c,20,638,23,VU,wmn5,m,typical,square,1,554.3478260869565,82.30113200012752,46
421,real_d,bottomleft,diff,d,1,672,18,VU,wmn9,m,typical,circle,1,554.3478260869565,82.30113200012752,46
421,real_d,topright,diff,d,2,503,18,VU,wfd9,f,disfigured,circle,1,554.3478260869565,82.30113200012752,46
421,real_d,topleft,diff,d,3,669,18,VU,wmd9,m,disfigured,circle,1,554.3478260869565,82.30113200012752,46
421,real_d,bottomleft,diff,d,4,508,23,VU,wmd8,m,disfigured,square,1,554.3478260869565,82.30113200012752,46
421,real_d,topleft,diff,d,7,532,23,VU,wfn10,f,typical,square,1,554.3478260869565,82.30113200012752,46
421,real_d,bottomleft,diff,d,11,560,23,VU,wfd10,f,disfigured,square,1,554.3478260869565,82.30113200012752,46
421,real_d,topleft,diff,d,12,580,23,VU,wmn8,m,typical,square,1,554.3478260869565,82.30113200012752,46
421,real_d,bottomright,diff,d,15,661,18,VU,wfd8,f,disfigured,circle,1,554.3478260869565,82.30113200012752,46
421,real_d,bottomright,diff,d,16,581,23,VU,wmn10,m,typical,square,1,554.3478260869565,82.30113200012752,46
421,real_d,topright,diff,d,17,544,23,VU,wfn8,f,typical,square,1,554.3478260869565,82.30113200012752,46
421,real_d,bottomright,diff,d,18,532,18,VU,wfn9,f,typical,circle,1,554.3478260869565,82.30113200012752,46
422,real_a,topleft,diff,a,2,839,18,VU,wmd2,m,disfigured,circle,1,597.4255319148937,123.04625229366096,47
422,real_a,topleft,diff,a,3,784,18,VU,wfd1,f,disfigured,circle,1,597.4255319148937,123.04625229366096,47
422,real_a,bottomright,diff,a,4,763,18,VU,wfn2,f,typical,circle,1,597.4255319148937,123.04625229366096,47
422,real_a,topright,diff,a,9,692,18,VU,wmd3,m,disfigured,circle,1,597.4255319148937,123.04625229366096,47
422,real_a,bottomleft,diff,a,10,531,18,VU,wmn2,m,typical,circle,1,597.4255319148937,123.04625229366096,47
422,real_a,bottomleft,diff,a,12,627,23,VU,wfn1,f,typical,square,1,597.4255319148937,123.04625229366096,47
422,real_a,bottomright,diff,a,14,695,18,VU,wmd1,m,disfigured,circle,1,597.4255319148937,123.04625229366096,47
422,real_a,bottomleft,diff,a,15,798,23,VU,wfd3,f,disfigured,square,1,597.4255319148937,123.04625229366096,47
422,real_a,topright,diff,a,16,864,23,VU,wmn1,m,typical,square,1,597.4255319148937,123.04625229366096,47
422,real_a,topright,diff,a,17,552,23,VU,wfd2,f,disfigured,square,1,597.4255319148937,123.04625229366096,47
422,real_a,bottomright,diff,a,18,596,18,VU,wmn3,m,typical,circle,1,597.4255319148937,123.04625229366096,47
422,real_a,topleft,diff,a,20,783,23,VU,wfn3,f,typical,square,1,597.4255319148937,123.04625229366096,47
422,real_b,bottomleft,diff,b,1,645,23,VU,wmd6,m,disfigured,square,1,597.4255319148937,123.04625229366096,47
422,real_b,topright,diff,b,2,709,23,VU,wfd8,f,disfigured,square,1,597.4255319148937,123.04625229366096,47
422,real_b,topright,diff,b,3,459,23,VU,wmn7,m,typical,square,1,597.4255319148937,123.04625229366096,47
422,real_b,bottomleft,diff,b,4,611,18,VU,wfn7,f,typical,circle,1,597.4255319148937,123.04625229366096,47
422,real_b,bottomleft,diff,b,5,549,23,VU,wmn8,m,typical,square,1,597.4255319148937,123.04625229366096,47
422,real_b,topleft,diff,b,11,440,23,VU,wmd8,m,disfigured,square,1,597.4255319148937,123.04625229366096,47
422,real_b,bottomright,diff,b,12,537,23,VU,wfn8,f,typical,square,1,597.4255319148937,123.04625229366096,47
422,real_b,bottomright,diff,b,14,596,23,VU,wfd6,f,disfigured,square,1,597.4255319148937,123.04625229366096,47
422,real_b,bottomright,diff,b,16,493,23,VU,wmd7,m,disfigured,square,1,597.4255319148937,123.04625229366096,47
422,real_b,topright,diff,b,17,643,23,VU,wfn6,f,typical,square,1,597.4255319148937,123.04625229366096,47
422,real_b,topleft,diff,b,18,452,23,VU,wfd7,f,disfigured,square,1,597.4255319148937,123.04625229366096,47
422,real_b,topleft,diff,b,19,412,23,VU,wmn6,m,typical,square,1,597.4255319148937,123.04625229366096,47
422,real_c,bottomright,diff,c,2,547,23,VU,wmd3,m,disfigured,square,1,597.4255319148937,123.04625229366096,47
422,real_c,topright,diff,c,5,525,18,VU,wmd4,m,disfigured,circle,1,597.4255319148937,123.04625229366096,47
422,real_c,bottomleft,diff,c,6,642,18,VU,wfd4,f,disfigured,circle,1,597.4255319148937,123.04625229366096,47
422,real_c,bottomleft,diff,c,11,646,18,VU,wfn3,f,typical,circle,1,597.4255319148937,123.04625229366096,47
422,real_c,topleft,diff,c,12,590,23,VU,wmn5,m,typical,square,1,597.4255319148937,123.04625229366096,47
422,real_c,topright,diff,c,13,609,23,VU,wmn3,m,typical,square,1,597.4255319148937,123.04625229366096,47
422,real_c,bottomright,diff,c,14,763,23,VU,wfd5,f,disfigured,square,1,597.4255319148937,123.04625229366096,47
422,real_c,topleft,diff,c,15,582,18,VU,wfn4,f,typical,circle,1,597.4255319148937,123.04625229366096,47
422,real_c,topright,diff,c,16,553,18,VU,wfn5,f,typical,circle,1,597.4255319148937,123.04625229366096,47
422,real_c,bottomright,diff,c,18,485,18,VU,wmn4,m,typical,circle,1,597.4255319148937,123.04625229366096,47
422,real_c,topleft,diff,c,19,644,23,VU,wfd3,f,disfigured,square,1,597.4255319148937,123.04625229366096,47
422,real_c,bottomleft,diff,c,20,540,23,VU,wmd5,m,disfigured,square,1,597.4255319148937,123.04625229366096,47
422,real_d,topright,diff,d,2,356,18,VU,wfn8,f,typical,circle,1,597.4255319148937,123.04625229366096,47
422,real_d,bottomleft,diff,d,3,424,18,VU,wmn9,m,typical,circle,1,597.4255319148937,123.04625229366096,47
422,real_d,bottomright,diff,d,4,586,18,VU,wfd8,f,disfigured,circle,1,597.4255319148937,123.04625229366096,47
422,real_d,topleft,diff,d,5,596,23,VU,wmd9,m,disfigured,square,1,597.4255319148937,123.04625229366096,47
422,real_d,topleft,diff,d,9,454,23,VU,wmn8,m,typical,square,1,597.4255319148937,123.04625229366096,47
422,real_d,topleft,diff,d,11,595,18,VU,wfn10,f,typical,circle,1,597.4255319148937,123.04625229366096,47
422,real_d,topright,diff,d,13,579,23,VU,wfd9,f,disfigured,square,1,597.4255319148937,123.04625229366096,47
422,real_d,bottomleft,diff,d,16,541,23,VU,wmd8,m,disfigured,square,1,597.4255319148937,123.04625229366096,47
422,real_d,topright,diff,d,17,418,23,VU,wmd10,m,disfigured,square,1,597.4255319148937,123.04625229366096,47
422,real_d,bottomleft,diff,d,18,499,18,VU,wfd10,f,disfigured,circle,1,597.4255319148937,123.04625229366096,47
422,real_d,bottomright,diff,d,20,835,23,VU,wfn9,f,typical,square,1,597.4255319148937,123.04625229366096,47
423,real_a,bottomleft,diff,a,1,579,23,VU,wfn1,f,typical,square,1,708.4888888888889,191.51366224967563,45
423,real_a,bottomright,diff,a,2,647,18,VU,wmn3,m,typical,circle,1,708.4888888888889,191.51366224967563,45
423,real_a,topright,diff,a,4,719,18,VU,wmn1,m,typical,circle,1,708.4888888888889,191.51366224967563,45
423,real_a,topleft,diff,a,5,740,23,VU,wfd1,f,disfigured,square,1,708.4888888888889,191.51366224967563,45
423,real_a,topleft,diff,a,6,705,18,VU,wmd2,m,disfigured,circle,1,708.4888888888889,191.51366224967563,45
423,real_a,bottomright,diff,a,9,656,18,VU,wfn2,f,typical,circle,1,708.4888888888889,191.51366224967563,45
423,real_a,topleft,diff,a,11,777,23,VU,wfn3,f,typical,square,1,708.4888888888889,191.51366224967563,45
423,real_a,bottomright,diff,a,16,683,18,VU,wmd1,m,disfigured,circle,1,708.4888888888889,191.51366224967563,45
423,real_a,bottomleft,diff,a,17,1010,23,VU,wmn2,m,typical,square,1,708.4888888888889,191.51366224967563,45
423,real_a,topright,diff,a,20,791,18,VU,wfd2,f,disfigured,circle,1,708.4888888888889,191.51366224967563,45
423,real_b,topleft,diff,b,1,586,18,VU,wmd8,m,disfigured,circle,1,708.4888888888889,191.51366224967563,45
423,real_b,bottomright,diff,b,4,859,23,VU,wfn8,f,typical,square,1,708.4888888888889,191.51366224967563,45
423,real_b,bottomleft,diff,b,7,573,18,VU,wfn7,f,typical,circle,1,708.4888888888889,191.51366224967563,45
423,real_b,bottomright,diff,b,8,608,18,VU,wmd7,m,disfigured,circle,1,708.4888888888889,191.51366224967563,45
423,real_b,topleft,diff,b,9,818,23,VU,wmn6,m,typical,square,1,708.4888888888889,191.51366224967563,45
423,real_b,bottomleft,diff,b,10,676,18,VU,wmn8,m,typical,circle,1,708.4888888888889,191.51366224967563,45
423,real_b,topright,diff,b,11,635,23,VU,wfn6,f,typical,square,1,708.4888888888889,191.51366224967563,45
423,real_b,topright,diff,b,12,700,18,VU,wfd8,f,disfigured,circle,1,708.4888888888889,191.51366224967563,45
423,real_b,topright,diff,b,15,1212,18,VU,wmn7,m,typical,circle,1,708.4888888888889,191.51366224967563,45
423,real_b,bottomright,diff,b,16,574,18,VU,wfd6,f,disfigured,circle,1,708.4888888888889,191.51366224967563,45
423,real_b,bottomleft,diff,b,17,377,23,VU,wmd6,m,disfigured,square,1,708.4888888888889,191.51366224967563,45
423,real_b,topleft,diff,b,18,677,23,VU,wfd7,f,disfigured,square,1,708.4888888888889,191.51366224967563,45
423,real_c,topleft,diff,c,2,748,18,VU,wfn4,f,typical,circle,1,708.4888888888889,191.51366224967563,45
423,real_c,topleft,diff,c,3,656,23,VU,wfd3,f,disfigured,square,1,708.4888888888889,191.51366224967563,45
423,real_c,bottomright,diff,c,4,864,18,VU,wmn4,m,typical,circle,1,708.4888888888889,191.51366224967563,45
423,real_c,topright,diff,c,5,856,18,VU,wmn3,m,typical,circle,1,708.4888888888889,191.51366224967563,45
423,real_c,topright,diff,c,6,688,23,VU,wmd4,m,disfigured,square,1,708.4888888888889,191.51366224967563,45
423,real_c,bottomleft,diff,c,10,639,23,VU,wmd5,m,disfigured,square,1,708.4888888888889,191.51366224967563,45
423,real_c,bottomright,diff,c,12,512,18,VU,wfd5,f,disfigured,circle,1,708.4888888888889,191.51366224967563,45
423,real_c,topleft,diff,c,13,469,23,VU,wmn5,m,typical,square,1,708.4888888888889,191.51366224967563,45
423,real_c,bottomright,diff,c,14,453,23,VU,wmd3,m,disfigured,square,1,708.4888888888889,191.51366224967563,45
423,real_c,bottomleft,diff,c,15,685,23,VU,wfd4,f,disfigured,square,1,708.4888888888889,191.51366224967563,45
423,real_c,bottomleft,diff,c,18,686,18,VU,wfn3,f,typical,circle,1,708.4888888888889,191.51366224967563,45
423,real_c,topright,diff,c,20,1052,23,VU,wfn5,f,typical,square,1,708.4888888888889,191.51366224967563,45
423,real_d,bottomright,diff,d,3,680,23,VU,wmn10,m,typical,square,1,708.4888888888889,191.51366224967563,45
423,real_d,bottomleft,diff,d,4,663,23,VU,wmd8,m,disfigured,square,1,708.4888888888889,191.51366224967563,45
423,real_d,topleft,diff,d,5,614,23,VU,wmd9,m,disfigured,square,1,708.4888888888889,191.51366224967563,45
423,real_d,topright,diff,d,7,628,23,VU,wmd10,m,disfigured,square,1,708.4888888888889,191.51366224967563,45
423,real_d,topright,diff,d,8,645,23,VU,wfn8,f,typical,square,1,708.4888888888889,191.51366224967563,45
423,real_d,bottomleft,diff,d,10,1283.0298756379157,23,VU,wmn9,m,typical,square,1,708.4888888888889,191.51366224967563,45
423,real_d,bottomright,diff,d,14,844,23,VU,wfn9,f,typical,square,1,708.4888888888889,191.51366224967563,45
423,real_d,bottomleft,diff,d,16,615,18,VU,wfd10,f,disfigured,circle,1,708.4888888888889,191.51366224967563,45
423,real_d,bottomright,diff,d,18,504,18,VU,wfd8,f,disfigured,circle,1,708.4888888888889,191.51366224967563,45
423,real_d,topleft,diff,d,19,550,18,VU,wmn8,m,typical,circle,1,708.4888888888889,191.51366224967563,45
423,real_d,topright,diff,d,20,770,23,VU,wfd9,f,disfigured,square,1,708.4888888888889,191.51366224967563,45
425,real_a,topright,diff,a,3,500,18,VU,wfd2,f,disfigured,circle,1,522.3333333333334,176.62260742766045,45
425,real_a,bottomleft,diff,a,4,386,18,VU,wmn2,m,typical,circle,1,522.3333333333334,176.62260742766045,45
425,real_a,bottomleft,diff,a,5,773,23,VU,wfn1,f,typical,square,1,522.3333333333334,176.62260742766045,45
425,real_a,topleft,diff,a,6,441,23,VU,wfd1,f,disfigured,square,1,522.3333333333334,176.62260742766045,45
425,real_a,bottomleft,diff,a,8,398,23,VU,wfd3,f,disfigured,square,1,522.3333333333334,176.62260742766045,45
425,real_a,topleft,diff,a,9,457,18,VU,wmd2,m,disfigured,circle,1,522.3333333333334,176.62260742766045,45
425,real_a,bottomright,diff,a,10,1033,23,VU,wmd1,m,disfigured,square,1,522.3333333333334,176.62260742766045,45
425,real_a,bottomright,diff,a,12,490,18,VU,wmn3,m,typical,circle,1,522.3333333333334,176.62260742766045,45
425,real_a,bottomright,diff,a,13,777,18,VU,wfn2,f,typical,circle,1,522.3333333333334,176.62260742766045,45
425,real_a,topleft,diff,a,14,684,23,VU,wfn3,f,typical,square,1,522.3333333333334,176.62260742766045,45
425,real_a,topright,diff,a,16,494,18,VU,wmn1,m,typical,circle,1,522.3333333333334,176.62260742766045,45
425,real_a,topright,diff,a,18,889,23,VU,wmd3,m,disfigured,square,1,522.3333333333334,176.62260742766045,45
425,real_b,bottomright,diff,b,1,544,23,VU,wmd7,m,disfigured,square,1,522.3333333333334,176.62260742766045,45
425,real_b,bottomright,diff,b,2,405,18,VU,wfn8,f,typical,circle,1,522.3333333333334,176.62260742766045,45
425,real_b,bottomleft,diff,b,4,680,23,VU,wmn8,m,typical,square,1,522.3333333333334,176.62260742766045,45
425,real_b,topleft,diff,b,5,463,23,VU,wmd8,m,disfigured,square,1,522.3333333333334,176.62260742766045,45
425,real_b,bottomleft,diff,b,6,478,18,VU,wfn7,f,typical,circle,1,522.3333333333334,176.62260742766045,45
425,real_b,bottomleft,diff,b,7,390,18,VU,wmd6,m,disfigured,circle,1,522.3333333333334,176.62260742766045,45
425,real_b,topright,diff,b,8,472,23,VU,wfn6,f,typical,square,1,522.3333333333334,176.62260742766045,45
425,real_b,bottomright,diff,b,10,417,18,VU,wfd6,f,disfigured,circle,1,522.3333333333334,176.62260742766045,45
425,real_b,topright,diff,b,14,422,18,VU,wfd8,f,disfigured,circle,1,522.3333333333334,176.62260742766045,45
425,real_b,topleft,diff,b,15,815,23,VU,wmn6,m,typical,square,1,522.3333333333334,176.62260742766045,45
425,real_b,topright,diff,b,16,488,18,VU,wmn7,m,typical,circle,1,522.3333333333334,176.62260742766045,45
425,real_b,topleft,diff,b,19,459,23,VU,wfd7,f,disfigured,square,1,522.3333333333334,176.62260742766045,45
425,real_c,topleft,diff,c,4,554,18,VU,wfd3,f,disfigured,circle,1,522.3333333333334,176.62260742766045,45
425,real_c,bottomright,diff,c,5,430,18,VU,wfd5,f,disfigured,circle,1,522.3333333333334,176.62260742766045,45
425,real_c,bottomleft,diff,c,6,423,23,VU,wfn3,f,typical,square,1,522.3333333333334,176.62260742766045,45
425,real_c,topright,diff,c,9,455,18,VU,wfn5,f,typical,circle,1,522.3333333333334,176.62260742766045,45
425,real_c,bottomright,diff,c,10,351,18,VU,wmn4,m,typical,circle,1,522.3333333333334,176.62260742766045,45
425,real_c,topright,diff,c,14,479,23,VU,wmd4,m,disfigured,square,1,522.3333333333334,176.62260742766045,45
425,real_c,bottomleft,diff,c,16,338,23,VU,wfd4,f,disfigured,square,1,522.3333333333334,176.62260742766045,45
425,real_c,topleft,diff,c,17,423,18,VU,wmn5,m,typical,circle,1,522.3333333333334,176.62260742766045,45
425,real_c,bottomright,diff,c,18,472,18,VU,wmd3,m,disfigured,circle,1,522.3333333333334,176.62260742766045,45
425,real_c,topright,diff,c,19,487,18,VU,wmn3,m,typical,circle,1,522.3333333333334,176.62260742766045,45
425,real_c,topleft,diff,c,20,422,23,VU,wfn4,f,typical,square,1,522.3333333333334,176.62260742766045,45
425,real_d,topright,diff,d,3,460,18,VU,wfd9,f,disfigured,circle,1,522.3333333333334,176.62260742766045,45
425,real_d,topright,diff,d,4,452,18,VU,wmd10,m,disfigured,circle,1,522.3333333333334,176.62260742766045,45
425,real_d,topleft,diff,d,6,478,23,VU,wmd9,m,disfigured,square,1,522.3333333333334,176.62260742766045,45
425,real_d,topleft,diff,d,7,517,23,VU,wmn8,m,typical,square,1,522.3333333333334,176.62260742766045,45
425,real_d,bottomleft,diff,d,8,451,23,VU,wfd10,f,disfigured,square,1,522.3333333333334,176.62260742766045,45
425,real_d,topright,diff,d,9,411,23,VU,wfn8,f,typical,square,1,522.3333333333334,176.62260742766045,45
425,real_d,bottomleft,diff,d,10,389,18,VU,wmd8,m,disfigured,circle,1,522.3333333333334,176.62260742766045,45
425,real_d,bottomright,diff,d,11,424,18,VU,wfd8,f,disfigured,circle,1,522.3333333333334,176.62260742766045,45
425,real_d,topleft,diff,d,19,1052.2011556163147,18,VU,wfn10,f,typical,circle,1,522.3333333333334,176.62260742766045,45
425,real_d,bottomright,diff,d,20,556,23,VU,wfn9,f,typical,square,1,522.3333333333334,176.62260742766045,45
426,real_a,topright,diff,a,1,730,18,VU,wfd2,f,disfigured,circle,1,582.5625,117.15291085276796,48
426,real_a,topleft,diff,a,3,934.0212325583038,23,VU,wmd2,m,disfigured,square,1,582.5625,117.15291085276796,48
426,real_a,bottomleft,diff,a,8,649,23,VU,wfn1,f,typical,square,1,582.5625,117.15291085276796,48
426,real_a,bottomleft,diff,a,9,617,23,VU,wmn2,m,typical,square,1,582.5625,117.15291085276796,48
426,real_a,topright,diff,a,12,662,23,VU,wmn1,m,typical,square,1,582.5625,117.15291085276796,48
426,real_a,bottomright,diff,a,13,638,23,VU,wmn3,m,typical,square,1,582.5625,117.15291085276796,48
426,real_a,bottomright,diff,a,14,615,23,VU,wfn2,f,typical,square,1,582.5625,117.15291085276796,48
426,real_a,topleft,diff,a,15,433,23,VU,wfn3,f,typical,square,1,582.5625,117.15291085276796,48
426,real_a,topleft,diff,a,16,514,23,VU,wfd1,f,disfigured,square,1,582.5625,117.15291085276796,48
426,real_a,bottomleft,diff,a,17,496,23,VU,wfd3,f,disfigured,square,1,582.5625,117.15291085276796,48
426,real_a,bottomright,diff,a,19,666,23,VU,wmd1,m,disfigured,square,1,582.5625,117.15291085276796,48
426,real_a,topright,diff,a,20,609,23,VU,wmd3,m,disfigured,square,1,582.5625,117.15291085276796,48
426,real_b,bottomleft,diff,b,1,594,18,VU,wmd6,m,disfigured,circle,1,582.5625,117.15291085276796,48
426,real_b,topright,diff,b,2,684,18,VU,wmn7,m,typical,circle,1,582.5625,117.15291085276796,48
426,real_b,topleft,diff,b,3,507,23,VU,wmd8,m,disfigured,square,1,582.5625,117.15291085276796,48
426,real_b,bottomleft,diff,b,6,603,18,VU,wmn8,m,typical,circle,1,582.5625,117.15291085276796,48
426,real_b,topleft,diff,b,7,581,23,VU,wfd7,f,disfigured,square,1,582.5625,117.15291085276796,48
426,real_b,bottomleft,diff,b,9,380,23,VU,wfn7,f,typical,square,1,582.5625,117.15291085276796,48
426,real_b,topright,diff,b,10,623,18,VU,wfd8,f,disfigured,circle,1,582.5625,117.15291085276796,48
426,real_b,bottomright,diff,b,11,624,23,VU,wfn8,f,typical,square,1,582.5625,117.15291085276796,48
426,real_b,topleft,diff,b,13,462,23,VU,wmn6,m,typical,square,1,582.5625,117.15291085276796,48
426,real_b,bottomright,diff,b,14,455,18,VU,wfd6,f,disfigured,circle,1,582.5625,117.15291085276796,48
426,real_b,bottomright,diff,b,16,934.0212325583038,23,VU,wmd7,m,disfigured,square,1,582.5625,117.15291085276796,48
426,real_b,topright,diff,b,18,485,18,VU,wfn6,f,typical,circle,1,582.5625,117.15291085276796,48
426,real_c,bottomright,diff,c,2,695,23,VU,wmn4,m,typical,square,1,582.5625,117.15291085276796,48
426,real_c,bottomright,diff,c,3,502,23,VU,wmd3,m,disfigured,square,1,582.5625,117.15291085276796,48
426,real_c,topright,diff,c,4,436,18,VU,wmd4,m,disfigured,circle,1,582.5625,117.15291085276796,48
426,real_c,bottomright,diff,c,5,517,23,VU,wfd5,f,disfigured,square,1,582.5625,117.15291085276796,48
426,real_c,bottomleft,diff,c,7,533,18,VU,wfd4,f,disfigured,circle,1,582.5625,117.15291085276796,48
426,real_c,bottomleft,diff,c,9,565,18,VU,wfn3,f,typical,circle,1,582.5625,117.15291085276796,48
426,real_c,topleft,diff,c,10,489,18,VU,wfd3,f,disfigured,circle,1,582.5625,117.15291085276796,48
426,real_c,topright,diff,c,11,800,18,VU,wmn3,m,typical,circle,1,582.5625,117.15291085276796,48
426,real_c,topleft,diff,c,14,508,18,VU,wfn4,f,typical,circle,1,582.5625,117.15291085276796,48
426,real_c,bottomleft,diff,c,15,466,23,VU,wmd5,m,disfigured,square,1,582.5625,117.15291085276796,48
426,real_c,topright,diff,c,17,689,23,VU,wfn5,f,typical,square,1,582.5625,117.15291085276796,48
426,real_c,topleft,diff,c,18,520,23,VU,wmn5,m,typical,square,1,582.5625,117.15291085276796,48
426,real_d,bottomright,diff,d,2,613,23,VU,wmn10,m,typical,square,1,582.5625,117.15291085276796,48
426,real_d,topleft,diff,d,3,534,23,VU,wmd9,m,disfigured,square,1,582.5625,117.15291085276796,48
426,real_d,topright,diff,d,5,537,23,VU,wfn8,f,typical,square,1,582.5625,117.15291085276796,48
426,real_d,bottomleft,diff,d,9,560,23,VU,wmn9,m,typical,square,1,582.5625,117.15291085276796,48
426,real_d,topleft,diff,d,13,541,23,VU,wfn10,f,typical,square,1,582.5625,117.15291085276796,48
426,real_d,bottomleft,diff,d,14,545,18,VU,wfd10,f,disfigured,circle,1,582.5625,117.15291085276796,48
426,real_d,bottomright,diff,d,15,486,23,VU,wfd8,f,disfigured,square,1,582.5625,117.15291085276796,48
426,real_d,topright,diff,d,16,493,23,VU,wmd10,m,disfigured,square,1,582.5625,117.15291085276796,48
426,real_d,topright,diff,d,17,571,18,VU,wfd9,f,disfigured,circle,1,582.5625,117.15291085276796,48
426,real_d,bottomleft,diff,d,18,718,23,VU,wmd8,m,disfigured,square,1,582.5625,117.15291085276796,48
426,real_d,topleft,diff,d,19,531,18,VU,wmn8,m,typical,circle,1,582.5625,117.15291085276796,48
426,real_d,bottomright,diff,d,20,576,18,VU,wfn9,f,typical,circle,1,582.5625,117.15291085276796,48
427,real_a,topleft,diff,a,2,689,18,VU,wfn3,f,typical,circle,1,577,150.62536307010186,48
427,real_a,topright,diff,a,3,608,18,VU,wfd2,f,disfigured,circle,1,577,150.62536307010186,48
427,real_a,bottomright,diff,a,5,818,23,VU,wmd1,m,disfigured,square,1,577,150.62536307010186,48
427,real_a,topleft,diff,a,6,524,18,VU,wmd2,m,disfigured,circle,1,577,150.62536307010186,48
427,real_a,bottomright,diff,a,7,914,23,VU,wmn3,m,typical,square,1,577,150.62536307010186,48
427,real_a,bottomleft,diff,a,9,446,18,VU,wmn2,m,typical,circle,1,577,150.62536307010186,48
427,real_a,bottomleft,diff,a,10,502,23,VU,wfd3,f,disfigured,square,1,577,150.62536307010186,48
427,real_a,topleft,diff,a,11,660,18,VU,wfd1,f,disfigured,circle,1,577,150.62536307010186,48
427,real_a,bottomright,diff,a,12,645,18,VU,wfn2,f,typical,circle,1,577,150.62536307010186,48
427,real_a,bottomleft,diff,a,14,506,23,VU,wfn1,f,typical,square,1,577,150.62536307010186,48
427,real_a,topright,diff,a,18,483,18,VU,wmd3,m,disfigured,circle,1,577,150.62536307010186,48
427,real_a,topright,diff,a,19,785,23,VU,wmn1,m,typical,square,1,577,150.62536307010186,48
427,real_b,topleft,diff,b,2,533,23,VU,wmd8,m,disfigured,square,1,577,150.62536307010186,48
427,real_b,bottomleft,diff,b,5,995,23,VU,wmd6,m,disfigured,square,1,577,150.62536307010186,48
427,real_b,bottomright,diff,b,8,727,23,VU,wfd6,f,disfigured,square,1,577,150.62536307010186,48
427,real_b,topright,diff,b,9,725,18,VU,wmn7,m,typical,circle,1,577,150.62536307010186,48
427,real_b,bottomleft,diff,b,10,434,23,VU,wfn7,f,typical,square,1,577,150.62536307010186,48
427,real_b,topright,diff,b,11,443,23,VU,wfn6,f,typical,square,1,577,150.62536307010186,48
427,real_b,bottomright,diff,b,13,806,18,VU,wfn8,f,typical,circle,1,577,150.62536307010186,48
427,real_b,topleft,diff,b,14,560,23,VU,wfd7,f,disfigured,square,1,577,150.62536307010186,48
427,real_b,topright,diff,b,15,500,23,VU,wfd8,f,disfigured,square,1,577,150.62536307010186,48
427,real_b,topleft,diff,b,18,482,23,VU,wmn6,m,typical,square,1,577,150.62536307010186,48
427,real_b,bottomright,diff,b,19,424,23,VU,wmd7,m,disfigured,square,1,577,150.62536307010186,48
427,real_b,bottomleft,diff,b,20,586,23,VU,wmn8,m,typical,square,1,577,150.62536307010186,48
427,real_c,bottomleft,diff,c,1,457,23,VU,wfn3,f,typical,square,1,577,150.62536307010186,48
427,real_c,bottomright,diff,c,2,497,18,VU,wfd5,f,disfigured,circle,1,577,150.62536307010186,48
427,real_c,bottomright,diff,c,4,451,18,VU,wmn4,m,typical,circle,1,577,150.62536307010186,48
427,real_c,bottomright,diff,c,5,443,23,VU,wmd3,m,disfigured,square,1,577,150.62536307010186,48
427,real_c,topleft,diff,c,6,748,23,VU,wfd3,f,disfigured,square,1,577,150.62536307010186,48
427,real_c,topright,diff,c,7,472,23,VU,wfn5,f,typical,square,1,577,150.62536307010186,48
427,real_c,topleft,diff,c,9,552,18,VU,wmn5,m,typical,circle,1,577,150.62536307010186,48
427,real_c,bottomleft,diff,c,10,388,23,VU,wmd5,m,disfigured,square,1,577,150.62536307010186,48
427,real_c,topleft,diff,c,12,497,23,VU,wfn4,f,typical,square,1,577,150.62536307010186,48
427,real_c,topright,diff,c,15,621,23,VU,wmn3,m,typical,square,1,577,150.62536307010186,48
427,real_c,topright,diff,c,16,559,18,VU,wmd4,m,disfigured,circle,1,577,150.62536307010186,48
427,real_c,bottomleft,diff,c,20,682,18,VU,wfd4,f,disfigured,circle,1,577,150.62536307010186,48
427,real_d,bottomleft,diff,d,3,625,18,VU,wfd10,f,disfigured,circle,1,577,150.62536307010186,48
427,real_d,bottomright,diff,d,4,514,18,VU,wfd8,f,disfigured,circle,1,577,150.62536307010186,48
427,real_d,topleft,diff,d,5,647,23,VU,wmd9,m,disfigured,square,1,577,150.62536307010186,48
427,real_d,bottomleft,diff,d,6,648,18,VU,wmn9,m,typical,circle,1,577,150.62536307010186,48
427,real_d,topright,diff,d,9,472,23,VU,wfn8,f,typical,square,1,577,150.62536307010186,48
427,real_d,bottomleft,diff,d,12,600,18,VU,wmd8,m,disfigured,circle,1,577,150.62536307010186,48
427,real_d,bottomright,diff,d,13,315,23,VU,wmn10,m,typical,square,1,577,150.62536307010186,48
427,real_d,bottomright,diff,d,14,408,23,VU,wfn9,f,typical,square,1,577,150.62536307010186,48
427,real_d,topright,diff,d,15,474,18,VU,wmd10,m,disfigured,circle,1,577,150.62536307010186,48
427,real_d,topleft,diff,d,16,602,18,VU,wfn10,f,typical,circle,1,577,150.62536307010186,48
427,real_d,topright,diff,d,18,344,23,VU,wfd9,f,disfigured,square,1,577,150.62536307010186,48
427,real_d,topleft,diff,d,19,885,23,VU,wmn8,m,typical,square,1,577,150.62536307010186,48
429,real_a,topright,diff,a,1,528,18,VU,wmd3,m,disfigured,circle,1,487.30434782608694,95.2598480333818,46
429,real_a,topleft,diff,a,2,573,23,VU,wfn3,f,typical,square,1,487.30434782608694,95.2598480333818,46
429,real_a,bottomright,diff,a,4,418,18,VU,wmd1,m,disfigured,circle,1,487.30434782608694,95.2598480333818,46
429,real_a,bottomleft,diff,a,7,373,23,VU,wfn1,f,typical,square,1,487.30434782608694,95.2598480333818,46
429,real_a,topright,diff,a,9,578,23,VU,wmn1,m,typical,square,1,487.30434782608694,95.2598480333818,46
429,real_a,bottomleft,diff,a,11,501,18,VU,wmn2,m,typical,circle,1,487.30434782608694,95.2598480333818,46
429,real_a,topright,diff,a,12,492,23,VU,wfd2,f,disfigured,square,1,487.30434782608694,95.2598480333818,46
429,real_a,topleft,diff,a,13,563,18,VU,wmd2,m,disfigured,circle,1,487.30434782608694,95.2598480333818,46
429,real_a,bottomright,diff,a,14,519,23,VU,wfn2,f,typical,square,1,487.30434782608694,95.2598480333818,46
429,real_a,bottomright,diff,a,16,552,23,VU,wmn3,m,typical,square,1,487.30434782608694,95.2598480333818,46
429,real_a,bottomleft,diff,a,17,540,23,VU,wfd3,f,disfigured,square,1,487.30434782608694,95.2598480333818,46
429,real_a,topleft,diff,a,19,467,23,VU,wfd1,f,disfigured,square,1,487.30434782608694,95.2598480333818,46
429,real_b,bottomright,diff,b,1,500,18,VU,wfn8,f,typical,circle,1,487.30434782608694,95.2598480333818,46
429,real_b,bottomleft,diff,b,2,362,18,VU,wmd6,m,disfigured,circle,1,487.30434782608694,95.2598480333818,46
429,real_b,topleft,diff,b,5,454,18,VU,wmd8,m,disfigured,circle,1,487.30434782608694,95.2598480333818,46
429,real_b,bottomright,diff,b,7,647,23,VU,wmd7,m,disfigured,square,1,487.30434782608694,95.2598480333818,46
429,real_b,bottomleft,diff,b,10,303,18,VU,wmn8,m,typical,circle,1,487.30434782608694,95.2598480333818,46
429,real_b,topright,diff,b,11,485,18,VU,wfd8,f,disfigured,circle,1,487.30434782608694,95.2598480333818,46
429,real_b,topright,diff,b,14,622,18,VU,wmn7,m,typical,circle,1,487.30434782608694,95.2598480333818,46
429,real_b,topleft,diff,b,15,752,18,VU,wmn6,m,typical,circle,1,487.30434782608694,95.2598480333818,46
429,real_b,topleft,diff,b,19,680,23,VU,wfd7,f,disfigured,square,1,487.30434782608694,95.2598480333818,46
429,real_b,topright,diff,b,20,454,18,VU,wfn6,f,typical,circle,1,487.30434782608694,95.2598480333818,46
429,real_c,topleft,diff,c,1,574,18,VU,wfd3,f,disfigured,circle,1,487.30434782608694,95.2598480333818,46
429,real_c,bottomright,diff,c,3,400,23,VU,wfd5,f,disfigured,square,1,487.30434782608694,95.2598480333818,46
429,real_c,topright,diff,c,4,546,23,VU,wmd4,m,disfigured,square,1,487.30434782608694,95.2598480333818,46
429,real_c,bottomleft,diff,c,5,590,23,VU,wmd5,m,disfigured,square,1,487.30434782608694,95.2598480333818,46
429,real_c,topleft,diff,c,6,369,18,VU,wmn5,m,typical,circle,1,487.30434782608694,95.2598480333818,46
429,real_c,topright,diff,c,7,500,18,VU,wfn5,f,typical,circle,1,487.30434782608694,95.2598480333818,46
429,real_c,topleft,diff,c,8,434,18,VU,wfn4,f,typical,circle,1,487.30434782608694,95.2598480333818,46
429,real_c,bottomright,diff,c,9,507,23,VU,wmd3,m,disfigured,square,1,487.30434782608694,95.2598480333818,46
