subject	blockcode	trialcode	trialnum	latency	response	stimulusitem1	stimulusitem2	stimulusitem3	stimulusitem4	stimulusitem5
201	practice	practice_bottomleft_same	1	1085	23	mask.bmp	blankscreen.bmp	practice5.jpg	blankscreen.bmp	square.bmp
201	practice	practice_topleft_same	2	778	23	mask.bmp	blankscreen.bmp	practice1.jpg	blankscreen.bmp	square.bmp
201	practice	practice_bottomright_same	3	644	18	mask.bmp	blankscreen.bmp	practice8.jpg	blankscreen.bmp	circle.bmp
201	practice	practice_topleft_same	4	556	23	mask.bmp	blankscreen.bmp	practice2.jpg	blankscreen.bmp	square.bmp
201	practice	practice_topright_diff	5	1007	23	mask.bmp	blankscreen.bmp	practice10.jpg	blankscreen.bmp	square.bmp
201	practice	practice_bottomleft_same	6	607	18	mask.bmp	blankscreen.bmp	practice6.jpg	blankscreen.bmp	circle.bmp
201	practice	practice_topleft_diff	7	896	18	mask.bmp	blankscreen.bmp	practice9.jpg	blankscreen.bmp	circle.bmp
201	practice	practice_topright_same	8	493	18	mask.bmp	blankscreen.bmp	practice4.jpg	blankscreen.bmp	circle.bmp
201	practice	practice_bottomright_same	9	531	18	mask.bmp	blankscreen.bmp	practice7.jpg	blankscreen.bmp	circle.bmp
201	practice	practice_bottomleft_diff	10	704	23	mask.bmp	blankscreen.bmp	practice11.jpg	blankscreen.bmp	square.bmp
201	practice	practice_bottomright_diff	11	917	18	mask.bmp	blankscreen.bmp	practice12.jpg	blankscreen.bmp	circle.bmp
201	practice	practice_topright_same	12	554	18	mask.bmp	blankscreen.bmp	practice3.jpg	blankscreen.bmp	circle.bmp
201	real_a	real_bottomright_diff_a	1	660	23	mask.bmp	blankscreen.bmp	wfn2.bmp	blankscreen.bmp	square.bmp
201	real_a	real_topright_same_a	2	426	18	mask.bmp	blankscreen.bmp	wmn4.bmp	blankscreen.bmp	circle.bmp
201	real_a	real_topleft_same_a	3	636	23	mask.bmp	blankscreen.bmp	wfd4.bmp	blankscreen.bmp	square.bmp
201	real_a	real_bottomleft_same_a	4	572	23	mask.bmp	blankscreen.bmp	wfn5.bmp	blankscreen.bmp	square.bmp
201	real_a	real_topright_diff_a	5	559	18	mask.bmp	blankscreen.bmp	wmd3.bmp	blankscreen.bmp	circle.bmp
201	real_a	real_bottomleft_diff_a	6	698	23	mask.bmp	blankscreen.bmp	wfd3.bmp	blankscreen.bmp	square.bmp
201	real_a	real_bottomright_same_a	7	640	23	mask.bmp	blankscreen.bmp	wmd5.bmp	blankscreen.bmp	square.bmp
201	real_a	real_bottomright_diff_a	8	648	23	mask.bmp	blankscreen.bmp	wmn3.bmp	blankscreen.bmp	square.bmp
201	real_a	real_bottomleft_same_a	9	496	18	mask.bmp	blankscreen.bmp	wmd4.bmp	blankscreen.bmp	circle.bmp
201	real_a	real_topleft_diff_a	10	582	18	mask.bmp	blankscreen.bmp	wfd1.bmp	blankscreen.bmp	circle.bmp
201	real_a	real_topleft_diff_a	11	408	18	mask.bmp	blankscreen.bmp	wmd2.bmp	blankscreen.bmp	circle.bmp
201	real_a	real_topleft_same_a	12	426	18	mask.bmp	blankscreen.bmp	wfn4.bmp	blankscreen.bmp	circle.bmp
201	real_a	real_bottomright_diff_a	13	739	18	mask.bmp	blankscreen.bmp	wmd1.bmp	blankscreen.bmp	circle.bmp
201	real_a	real_bottomleft_diff_a	14	567	23	mask.bmp	blankscreen.bmp	wfn1.bmp	blankscreen.bmp	square.bmp
201	real_a	real_bottomleft_diff_a	15	794	23	mask.bmp	blankscreen.bmp	wmn2.bmp	blankscreen.bmp	square.bmp
201	real_a	real_topright_diff_a	16	509	18	mask.bmp	blankscreen.bmp	wmn1.bmp	blankscreen.bmp	circle.bmp
201	real_a	real_topright_diff_a	17	641	23	mask.bmp	blankscreen.bmp	wfd2.bmp	blankscreen.bmp	square.bmp
201	real_a	real_topleft_diff_a	18	521	18	mask.bmp	blankscreen.bmp	wfn3.bmp	blankscreen.bmp	circle.bmp
201	real_a	real_bottomright_same_a	19	486	18	mask.bmp	blankscreen.bmp	wmn5.bmp	blankscreen.bmp	circle.bmp
201	real_a	real_topright_same_a	20	486	23	mask.bmp	blankscreen.bmp	wfd5.bmp	blankscreen.bmp	square.bmp
201	real_b	real_topleft_diff_b	1	464	23	mask.bmp	blankscreen.bmp	wmd8.bmp	blankscreen.bmp	circle.bmp
201	real_b	real_topright_same_b	2	472	18	mask.bmp	blankscreen.bmp	wmn10.bmp	blankscreen.bmp	circle.bmp
201	real_b	real_bottomright_same_b	3	414	18	mask.bmp	blankscreen.bmp	wfn10.bmp	blankscreen.bmp	circle.bmp
201	real_b	real_topleft_diff_b	4	584	18	mask.bmp	blankscreen.bmp	wfd7.bmp	blankscreen.bmp	circle.bmp
201	real_b	real_topleft_same_b	5	491	23	mask.bmp	blankscreen.bmp	wmd9.bmp	blankscreen.bmp	square.bmp
201	real_b	real_bottomright_diff_b	6	705	18	mask.bmp	blankscreen.bmp	wmd7.bmp	blankscreen.bmp	circle.bmp
201	real_b	real_bottomright_diff_b	7	598	18	mask.bmp	blankscreen.bmp	wfd6.bmp	blankscreen.bmp	circle.bmp
201	real_b	real_topleft_diff_b	8	504	18	mask.bmp	blankscreen.bmp	wmn6.bmp	blankscreen.bmp	circle.bmp
201	real_b	real_topright_diff_b	9	526	23	mask.bmp	blankscreen.bmp	wfd8.bmp	blankscreen.bmp	square.bmp
201	real_b	real_topright_same_b	10	490	23	mask.bmp	blankscreen.bmp	wfn9.bmp	blankscreen.bmp	square.bmp
201	real_b	real_bottomleft_diff_b	11	497	18	mask.bmp	blankscreen.bmp	wmn8.bmp	blankscreen.bmp	circle.bmp
201	real_b	real_bottomleft_same_b	12	367	18	mask.bmp	blankscreen.bmp	wmd10.bmp	blankscreen.bmp	circle.bmp
201	real_b	real_bottomleft_diff_b	13	443	18	mask.bmp	blankscreen.bmp	wfn7.bmp	blankscreen.bmp	circle.bmp
201	real_b	real_bottomleft_diff_b	14	419	18	mask.bmp	blankscreen.bmp	wmd6.bmp	blankscreen.bmp	circle.bmp
201	real_b	real_bottomright_same_b	15	532	18	mask.bmp	blankscreen.bmp	wfd10.bmp	blankscreen.bmp	circle.bmp
201	real_b	real_topleft_same_b	16	377	18	mask.bmp	blankscreen.bmp	wmn9.bmp	blankscreen.bmp	circle.bmp
201	real_b	real_topright_diff_b	17	388	23	mask.bmp	blankscreen.bmp	wmn7.bmp	blankscreen.bmp	square.bmp
201	real_b	real_topright_diff_b	18	511	23	mask.bmp	blankscreen.bmp	wfn6.bmp	blankscreen.bmp	square.bmp
201	real_b	real_bottomleft_same_b	19	397	23	mask.bmp	blankscreen.bmp	wfd9.bmp	blankscreen.bmp	square.bmp
201	real_b	real_bottomright_diff_b	20	495	18	mask.bmp	blankscreen.bmp	wfn8.bmp	blankscreen.bmp	circle.bmp
201	real_c	real_topright_diff_c	1	482	23	mask.bmp	blankscreen.bmp	wmd4.bmp	blankscreen.bmp	square.bmp
201	real_c	real_topleft_diff_c	2	329	23	mask.bmp	blankscreen.bmp	wfn4.bmp	blankscreen.bmp	square.bmp
201	real_c	real_bottomright_same_c	3	518	18	mask.bmp	blankscreen.bmp	wmn2.bmp	blankscreen.bmp	circle.bmp
201	real_c	real_bottomright_same_c	4	556	18	mask.bmp	blankscreen.bmp	wmd2.bmp	blankscreen.bmp	square.bmp
201	real_c	real_bottomleft_same_c	5	399	18	mask.bmp	blankscreen.bmp	wmn1.bmp	blankscreen.bmp	circle.bmp
201	real_c	real_topright_diff_c	6	658	18	mask.bmp	blankscreen.bmp	wmn3.bmp	blankscreen.bmp	circle.bmp
201	real_c	real_bottomright_diff_c	7	561	18	mask.bmp	blankscreen.bmp	wmn4.bmp	blankscreen.bmp	circle.bmp
201	real_c	real_bottomleft_diff_c	8	492	23	mask.bmp	blankscreen.bmp	wmd5.bmp	blankscreen.bmp	square.bmp
201	real_c	real_topright_same_c	9	626	18	mask.bmp	blankscreen.bmp	wmd1.bmp	blankscreen.bmp	circle.bmp
201	real_c	real_topright_same_c	10	595	23	mask.bmp	blankscreen.bmp	wfn2.bmp	blankscreen.bmp	square.bmp
201	real_c	real_topleft_diff_c	11	798	18	mask.bmp	blankscreen.bmp	wfd3.bmp	blankscreen.bmp	circle.bmp
201	real_c	real_topleft_same_c	12	646	18	mask.bmp	blankscreen.bmp	wfd1.bmp	blankscreen.bmp	circle.bmp
201	real_c	real_bottomright_diff_c	13	734	18	mask.bmp	blankscreen.bmp	wfd5.bmp	blankscreen.bmp	circle.bmp
201	real_c	real_bottomleft_diff_c	14	458	18	mask.bmp	blankscreen.bmp	wfd4.bmp	blankscreen.bmp	circle.bmp
201	real_c	real_bottomright_diff_c	15	538	23	mask.bmp	blankscreen.bmp	wmd3.bmp	blankscreen.bmp	square.bmp
201	real_c	real_topleft_same_c	16	398	23	mask.bmp	blankscreen.bmp	wfn1.bmp	blankscreen.bmp	square.bmp
201	real_c	real_topright_diff_c	17	577	23	mask.bmp	blankscreen.bmp	wfn5.bmp	blankscreen.bmp	square.bmp
201	real_c	real_topleft_diff_c	18	499	23	mask.bmp	blankscreen.bmp	wmn5.bmp	blankscreen.bmp	square.bmp
201	real_c	real_bottomleft_diff_c	19	514	23	mask.bmp	blankscreen.bmp	wfn3.bmp	blankscreen.bmp	square.bmp
201	real_c	real_bottomleft_same_c	20	543	18	mask.bmp	blankscreen.bmp	wfd2.bmp	blankscreen.bmp	circle.bmp
201	real_d	real_topleft_same_d	1	391	18	mask.bmp	blankscreen.bmp	wmd6.bmp	blankscreen.bmp	circle.bmp
201	real_d	real_bottomleft_diff_d	2	594	18	mask.bmp	blankscreen.bmp	wmn9.bmp	blankscreen.bmp	circle.bmp
201	real_d	real_bottomleft_same_d	3	380	18	mask.bmp	blankscreen.bmp	wfn6.bmp	blankscreen.bmp	circle.bmp
201	real_d	real_topleft_diff_d	4	375	23	mask.bmp	blankscreen.bmp	wfn10.bmp	blankscreen.bmp	square.bmp
201	real_d	real_topright_diff_d	5	642	18	mask.bmp	blankscreen.bmp	wfn8.bmp	blankscreen.bmp	circle.bmp
201	real_d	real_bottomleft_same_d	6	514	23	mask.bmp	blankscreen.bmp	wmn7.bmp	blankscreen.bmp	square.bmp
201	real_d	real_topleft_diff_d	7	576	18	mask.bmp	blankscreen.bmp	wmn8.bmp	blankscreen.bmp	circle.bmp
201	real_d	real_bottomleft_diff_d	8	459	23	mask.bmp	blankscreen.bmp	wfd10.bmp	blankscreen.bmp	square.bmp
201	real_d	real_topright_same_d	9	546	23	mask.bmp	blankscreen.bmp	wfd6.bmp	blankscreen.bmp	square.bmp
201	real_d	real_topleft_same_d	10	494	23	mask.bmp	blankscreen.bmp	wmn6.bmp	blankscreen.bmp	square.bmp
201	real_d	real_topleft_diff_d	11	469	18	mask.bmp	blankscreen.bmp	wmd9.bmp	blankscreen.bmp	circle.bmp
201	real_d	real_bottomright_diff_d	12	709	18	mask.bmp	blankscreen.bmp	wmn10.bmp	blankscreen.bmp	circle.bmp
201	real_d	real_topright_diff_d	13	641	18	mask.bmp	blankscreen.bmp	wmd10.bmp	blankscreen.bmp	circle.bmp
201	real_d	real_bottomright_same_d	14	585	23	mask.bmp	blankscreen.bmp	wfd7.bmp	blankscreen.bmp	square.bmp
201	real_d	real_topright_same_d	15	580	23	mask.bmp	blankscreen.bmp	wmd7.bmp	blankscreen.bmp	square.bmp
201	real_d	real_topright_diff_d	16	470	23	mask.bmp	blankscreen.bmp	wfd9.bmp	blankscreen.bmp	square.bmp
201	real_d	real_bottomleft_diff_d	17	437	23	mask.bmp	blankscreen.bmp	wmd8.bmp	blankscreen.bmp	square.bmp
201	real_d	real_bottomright_diff_d	18	486	23	mask.bmp	blankscreen.bmp	wfn9.bmp	blankscreen.bmp	square.bmp
201	real_d	real_bottomright_same_d	19	509	18	mask.bmp	blankscreen.bmp	wfn7.bmp	blankscreen.bmp	circle.bmp
201	real_d	real_bottomright_diff_d	20	579	18	mask.bmp	blankscreen.bmp	wfd8.bmp	blankscreen.bmp	circle.bmp
204	practice	practice_topright_same	1	416	18	mask.bmp	blankscreen.bmp	practice4.jpg	blankscreen.bmp	circle.bmp
204	practice	practice_topleft_same	2	490	23	mask.bmp	blankscreen.bmp	practice2.jpg	blankscreen.bmp	square.bmp
204	practice	practice_bottomleft_diff	3	576	18	mask.bmp	blankscreen.bmp	practice11.jpg	blankscreen.bmp	circle.bmp
204	practice	practice_bottomright_same	4	451	18	mask.bmp	blankscreen.bmp	practice7.jpg	blankscreen.bmp	circle.bmp
204	practice	practice_bottomleft_same	5	579	18	mask.bmp	blankscreen.bmp	practice6.jpg	blankscreen.bmp	circle.bmp
204	practice	practice_bottomright_diff	6	462	18	mask.bmp	blankscreen.bmp	practice12.jpg	blankscreen.bmp	circle.bmp
204	practice	practice_topright_same	7	429	18	mask.bmp	blankscreen.bmp	practice3.jpg	blankscreen.bmp	circle.bmp
204	practice	practice_bottomright_same	8	462	18	mask.bmp	blankscreen.bmp	practice8.jpg	blankscreen.bmp	circle.bmp
204	practice	practice_bottomleft_same	9	422	18	mask.bmp	blankscreen.bmp	practice5.jpg	blankscreen.bmp	square.bmp
204	practice	practice_topleft_same	10	463	18	mask.bmp	blankscreen.bmp	practice1.jpg	blankscreen.bmp	circle.bmp
204	practice	practice_topleft_diff	11	471	23	mask.bmp	blankscreen.bmp	practice9.jpg	blankscreen.bmp	square.bmp
204	practice	practice_topright_diff	12	462	23	mask.bmp	blankscreen.bmp	practice10.jpg	blankscreen.bmp	square.bmp
204	real_a	real_bottomleft_diff_a	1	451	23	mask.bmp	blankscreen.bmp	wfd3.bmp	blankscreen.bmp	square.bmp
204	real_a	real_bottomleft_diff_a	2	483	23	mask.bmp	blankscreen.bmp	wmn2.bmp	blankscreen.bmp	square.bmp
204	real_a	real_bottomleft_diff_a	3	594	23	mask.bmp	blankscreen.bmp	wfn1.bmp	blankscreen.bmp	square.bmp
204	real_a	real_topright_diff_a	4	572	23	mask.bmp	blankscreen.bmp	wfd2.bmp	blankscreen.bmp	square.bmp
204	real_a	real_bottomright_diff_a	5	518	23	mask.bmp	blankscreen.bmp	wmn3.bmp	blankscreen.bmp	square.bmp
204	real_a	real_topleft_same_a	6	532	18	mask.bmp	blankscreen.bmp	wfn4.bmp	blankscreen.bmp	circle.bmp
204	real_a	real_topright_diff_a	7	545	23	mask.bmp	blankscreen.bmp	wmd3.bmp	blankscreen.bmp	square.bmp
204	real_a	real_bottomright_same_a	8	525	18	mask.bmp	blankscreen.bmp	wmn5.bmp	blankscreen.bmp	circle.bmp
204	real_a	real_bottomleft_same_a	9	626	23	mask.bmp	blankscreen.bmp	wfn5.bmp	blankscreen.bmp	square.bmp
204	real_a	real_topleft_diff_a	10	562	18	mask.bmp	blankscreen.bmp	wfd1.bmp	blankscreen.bmp	circle.bmp
204	real_a	real_topleft_same_a	11	606	23	mask.bmp	blankscreen.bmp	wfd4.bmp	blankscreen.bmp	square.bmp
204	real_a	real_bottomright_diff_a	12	527	18	mask.bmp	blankscreen.bmp	wfn2.bmp	blankscreen.bmp	circle.bmp
204	real_a	real_topright_same_a	13	724	23	mask.bmp	blankscreen.bmp	wfd5.bmp	blankscreen.bmp	square.bmp
204	real_a	real_bottomright_same_a	14	536	23	mask.bmp	blankscreen.bmp	wmd5.bmp	blankscreen.bmp	circle.bmp
204	real_a	real_topleft_diff_a	15	516	18	mask.bmp	blankscreen.bmp	wmd2.bmp	blankscreen.bmp	circle.bmp
204	real_a	real_topright_diff_a	16	537	18	mask.bmp	blankscreen.bmp	wmn1.bmp	blankscreen.bmp	circle.bmp
204	real_a	real_bottomleft_same_a	17	541	23	mask.bmp	blankscreen.bmp	wmd4.bmp	blankscreen.bmp	square.bmp
204	real_a	real_bottomright_diff_a	18	570	23	mask.bmp	blankscreen.bmp	wmd1.bmp	blankscreen.bmp	square.bmp
204	real_a	real_topright_same_a	19	526	18	mask.bmp	blankscreen.bmp	wmn4.bmp	blankscreen.bmp	circle.bmp
204	real_a	real_topleft_diff_a	20	546	23	mask.bmp	blankscreen.bmp	wfn3.bmp	blankscreen.bmp	square.bmp
204	real_b	real_bottomleft_diff_b	1	479	18	mask.bmp	blankscreen.bmp	wfn7.bmp	blankscreen.bmp	circle.bmp
204	real_b	real_bottomright_diff_b	2	470	23	mask.bmp	blankscreen.bmp	wfn8.bmp	blankscreen.bmp	square.bmp
204	real_b	real_bottomright_same_b	3	589	23	mask.bmp	blankscreen.bmp	wfd10.bmp	blankscreen.bmp	square.bmp
204	real_b	real_topright_same_b	4	567	18	mask.bmp	blankscreen.bmp	wmn10.bmp	blankscreen.bmp	circle.bmp
204	real_b	real_bottomright_diff_b	5	458	18	mask.bmp	blankscreen.bmp	wfd6.bmp	blankscreen.bmp	circle.bmp
204	real_b	real_topright_diff_b	6	514	23	mask.bmp	blankscreen.bmp	wfn6.bmp	blankscreen.bmp	square.bmp
204	real_b	real_topright_same_b	7	543	23	mask.bmp	blankscreen.bmp	wfn9.bmp	blankscreen.bmp	square.bmp
204	real_b	real_topright_diff_b	8	468	18	mask.bmp	blankscreen.bmp	wfd8.bmp	blankscreen.bmp	circle.bmp
204	real_b	real_topleft_same_b	9	467	23	mask.bmp	blankscreen.bmp	wmn9.bmp	blankscreen.bmp	circle.bmp
204	real_b	real_bottomleft_diff_b	10	587	23	mask.bmp	blankscreen.bmp	wmd6.bmp	blankscreen.bmp	square.bmp
204	real_b	real_topleft_diff_b	11	429	18	mask.bmp	blankscreen.bmp	wmd8.bmp	blankscreen.bmp	circle.bmp
204	real_b	real_topright_diff_b	12	470	18	mask.bmp	blankscreen.bmp	wmn7.bmp	blankscreen.bmp	circle.bmp
204	real_b	real_topleft_same_b	13	589	23	mask.bmp	blankscreen.bmp	wmd9.bmp	blankscreen.bmp	square.bmp
204	real_b	real_bottomleft_same_b	14	703	18	mask.bmp	blankscreen.bmp	wfd9.bmp	blankscreen.bmp	circle.bmp
204	real_b	real_bottomleft_same_b	15	396	18	mask.bmp	blankscreen.bmp	wmd10.bmp	blankscreen.bmp	circle.bmp
204	real_b	real_topleft_diff_b	16	438	18	mask.bmp	blankscreen.bmp	wfd7.bmp	blankscreen.bmp	circle.bmp
204	real_b	real_topleft_diff_b	17	463	23	mask.bmp	blankscreen.bmp	wmn6.bmp	blankscreen.bmp	square.bmp
204	real_b	real_bottomleft_diff_b	18	471	18	mask.bmp	blankscreen.bmp	wmn8.bmp	blankscreen.bmp	circle.bmp
204	real_b	real_bottomright_diff_b	19	373	18	mask.bmp	blankscreen.bmp	wmd7.bmp	blankscreen.bmp	circle.bmp
204	real_b	real_bottomright_same_b	20	513	18	mask.bmp	blankscreen.bmp	wfn10.bmp	blankscreen.bmp	circle.bmp
204	real_c	real_bottomright_same_c	1	353	18	mask.bmp	blankscreen.bmp	wmn2.bmp	blankscreen.bmp	circle.bmp
204	real_c	real_topleft_diff_c	2	429	18	mask.bmp	blankscreen.bmp	wfn4.bmp	blankscreen.bmp	circle.bmp
204	real_c	real_topright_diff_c	3	478	23	mask.bmp	blankscreen.bmp	wmn3.bmp	blankscreen.bmp	square.bmp
204	real_c	real_bottomright_diff_c	4	661	23	mask.bmp	blankscreen.bmp	wmn4.bmp	blankscreen.bmp	square.bmp
204	real_c	real_bottomright_same_c	5	740	23	mask.bmp	blankscreen.bmp	wmd2.bmp	blankscreen.bmp	square.bmp
204	real_c	real_topright_same_c	6	527	18	mask.bmp	blankscreen.bmp	wmd1.bmp	blankscreen.bmp	circle.bmp
204	real_c	real_topright_same_c	7	508	18	mask.bmp	blankscreen.bmp	wfn2.bmp	blankscreen.bmp	circle.bmp
204	real_c	real_bottomright_diff_c	8	498	23	mask.bmp	blankscreen.bmp	wmd3.bmp	blankscreen.bmp	square.bmp
204	real_c	real_bottomleft_diff_c	9	392	18	mask.bmp	blankscreen.bmp	wfd4.bmp	blankscreen.bmp	circle.bmp
204	real_c	real_topleft_same_c	10	547	18	mask.bmp	blankscreen.bmp	wfd1.bmp	blankscreen.bmp	circle.bmp
204	real_c	real_topright_diff_c	11	286	18	mask.bmp	blankscreen.bmp	wfn5.bmp	blankscreen.bmp	square.bmp
204	real_c	real_topleft_diff_c	12	414	23	mask.bmp	blankscreen.bmp	wfd3.bmp	blankscreen.bmp	square.bmp
204	real_c	real_bottomleft_same_c	13	615	18	mask.bmp	blankscreen.bmp	wmn1.bmp	blankscreen.bmp	circle.bmp
204	real_c	real_bottomleft_diff_c	14	472	18	mask.bmp	blankscreen.bmp	wfn3.bmp	blankscreen.bmp	circle.bmp
204	real_c	real_bottomleft_diff_c	15	471	23	mask.bmp	blankscreen.bmp	wmd5.bmp	blankscreen.bmp	square.bmp
204	real_c	real_topleft_same_c	16	446	23	mask.bmp	blankscreen.bmp	wfn1.bmp	blankscreen.bmp	square.bmp
204	real_c	real_topleft_diff_c	17	415	18	mask.bmp	blankscreen.bmp	wmn5.bmp	blankscreen.bmp	circle.bmp
204	real_c	real_bottomright_diff_c	18	553	18	mask.bmp	blankscreen.bmp	wfd5.bmp	blankscreen.bmp	circle.bmp
204	real_c	real_bottomleft_same_c	19	414	18	mask.bmp	blankscreen.bmp	wfd2.bmp	blankscreen.bmp	square.bmp
204	real_c	real_topright_diff_c	20	455	18	mask.bmp	blankscreen.bmp	wmd4.bmp	blankscreen.bmp	circle.bmp
204	real_d	real_bottomleft_diff_d	1	443	18	mask.bmp	blankscreen.bmp	wmn9.bmp	blankscreen.bmp	circle.bmp
204	real_d	real_bottomleft_same_d	2	396	18	mask.bmp	blankscreen.bmp	wmn7.bmp	blankscreen.bmp	circle.bmp
204	real_d	real_bottomright_same_d	3	518	23	mask.bmp	blankscreen.bmp	wfd7.bmp	blankscreen.bmp	square.bmp
204	real_d	real_bottomleft_diff_d	4	419	23	mask.bmp	blankscreen.bmp	wfd10.bmp	blankscreen.bmp	square.bmp
204	real_d	real_topright_same_d	5	525	18	mask.bmp	blankscreen.bmp	wmd7.bmp	blankscreen.bmp	circle.bmp
204	real_d	real_topleft_diff_d	6	498	18	mask.bmp	blankscreen.bmp	wmn8.bmp	blankscreen.bmp	circle.bmp
204	real_d	real_bottomright_diff_d	7	480	23	mask.bmp	blankscreen.bmp	wmn10.bmp	blankscreen.bmp	square.bmp
204	real_d	real_topleft_same_d	8	487	18	mask.bmp	blankscreen.bmp	wmd6.bmp	blankscreen.bmp	circle.bmp
204	real_d	real_bottomright_diff_d	9	477	18	mask.bmp	blankscreen.bmp	wfd8.bmp	blankscreen.bmp	circle.bmp
204	real_d	real_topleft_diff_d	10	444	23	mask.bmp	blankscreen.bmp	wfn10.bmp	blankscreen.bmp	square.bmp
204	real_d	real_topleft_same_d	11	557	18	mask.bmp	blankscreen.bmp	wmn6.bmp	blankscreen.bmp	circle.bmp
204	real_d	real_topright_same_d	12	464	18	mask.bmp	blankscreen.bmp	wfd6.bmp	blankscreen.bmp	circle.bmp
204	real_d	real_topright_diff_d	13	559	23	mask.bmp	blankscreen.bmp	wmd10.bmp	blankscreen.bmp	square.bmp
204	real_d	real_topright_diff_d	14	443	18	mask.bmp	blankscreen.bmp	wfn8.bmp	blankscreen.bmp	circle.bmp
204	real_d	real_bottomleft_same_d	15	507	18	mask.bmp	blankscreen.bmp	wfn6.bmp	blankscreen.bmp	circle.bmp
204	real_d	real_bottomleft_diff_d	16	521	18	mask.bmp	blankscreen.bmp	wmd8.bmp	blankscreen.bmp	circle.bmp
204	real_d	real_topleft_diff_d	17	470	18	mask.bmp	blankscreen.bmp	wmd9.bmp	blankscreen.bmp	circle.bmp
204	real_d	real_topright_diff_d	18	509	23	mask.bmp	blankscreen.bmp	wfd9.bmp	blankscreen.bmp	square.bmp
204	real_d	real_bottomright_diff_d	19	443	18	mask.bmp	blankscreen.bmp	wfn9.bmp	blankscreen.bmp	circle.bmp
204	real_d	real_bottomright_same_d	20	467	23	mask.bmp	blankscreen.bmp	wfn7.bmp	blankscreen.bmp	square.bmp
208	practice	practice_bottomleft_same	1	936	18	mask.bmp	blankscreen.bmp	practice5.jpg	blankscreen.bmp	circle.bmp
208	practice	practice_bottomright_diff	2	988	18	mask.bmp	blankscreen.bmp	practice12.jpg	blankscreen.bmp	circle.bmp
208	practice	practice_topleft_same	3	749	23	mask.bmp	blankscreen.bmp	practice2.jpg	blankscreen.bmp	square.bmp
208	practice	practice_bottomright_same	4	440	18	mask.bmp	blankscreen.bmp	practice7.jpg	blankscreen.bmp	circle.bmp
208	practice	practice_topright_same	5	616	18	mask.bmp	blankscreen.bmp	practice3.jpg	blankscreen.bmp	circle.bmp
208	practice	practice_bottomleft_diff	6	753	18	mask.bmp	blankscreen.bmp	practice11.jpg	blankscreen.bmp	circle.bmp
208	practice	practice_topright_same	7	500	18	mask.bmp	blankscreen.bmp	practice4.jpg	blankscreen.bmp	circle.bmp
208	practice	practice_topright_diff	8	626	23	mask.bmp	blankscreen.bmp	practice10.jpg	blankscreen.bmp	square.bmp
208	practice	practice_topleft_diff	9	763	18	mask.bmp	blankscreen.bmp	practice9.jpg	blankscreen.bmp	circle.bmp
208	practice	practice_bottomright_same	10	750	23	mask.bmp	blankscreen.bmp	practice8.jpg	blankscreen.bmp	square.bmp
208	practice	practice_bottomleft_same	11	545	18	mask.bmp	blankscreen.bmp	practice6.jpg	blankscreen.bmp	circle.bmp
208	practice	practice_topleft_same	12	549	18	mask.bmp	blankscreen.bmp	practice1.jpg	blankscreen.bmp	circle.bmp
208	real_a	real_topright_same_a	1	817	18	mask.bmp	blankscreen.bmp	wmn4.bmp	blankscreen.bmp	circle.bmp
208	real_a	real_bottomleft_same_a	2	1658	23	mask.bmp	blankscreen.bmp	wmd4.bmp	blankscreen.bmp	square.bmp
208	real_a	real_bottomright_diff_a	3	702	23	mask.bmp	blankscreen.bmp	wmd1.bmp	blankscreen.bmp	square.bmp
208	real_a	real_topright_same_a	4	4	18	mask.bmp	blankscreen.bmp	wfd5.bmp	blankscreen.bmp	square.bmp
208	real_a	real_topright_diff_a	5	1159	18	mask.bmp	blankscreen.bmp	wmn1.bmp	blankscreen.bmp	circle.bmp
208	real_a	real_bottomleft_diff_a	6	1368	23	mask.bmp	blankscreen.bmp	wfd3.bmp	blankscreen.bmp	circle.bmp
208	real_a	real_topright_diff_a	7	1145	23	mask.bmp	blankscreen.bmp	wfd2.bmp	blankscreen.bmp	square.bmp
208	real_a	real_bottomright_diff_a	8	827	18	mask.bmp	blankscreen.bmp	wfn2.bmp	blankscreen.bmp	circle.bmp
208	real_a	real_topleft_same_a	9	723	18	mask.bmp	blankscreen.bmp	wfn4.bmp	blankscreen.bmp	circle.bmp
208	real_a	real_bottomleft_diff_a	10	743	23	mask.bmp	blankscreen.bmp	wfn1.bmp	blankscreen.bmp	square.bmp
208	real_a	real_topleft_diff_a	11	763	23	mask.bmp	blankscreen.bmp	wmd2.bmp	blankscreen.bmp	square.bmp
208	real_a	real_topleft_same_a	12	1054	18	mask.bmp	blankscreen.bmp	wfd4.bmp	blankscreen.bmp	circle.bmp
208	real_a	real_topleft_diff_a	13	997	23	mask.bmp	blankscreen.bmp	wfd1.bmp	blankscreen.bmp	square.bmp
208	real_a	real_bottomright_same_a	14	773	18	mask.bmp	blankscreen.bmp	wmd5.bmp	blankscreen.bmp	circle.bmp
208	real_a	real_topright_diff_a	15	1047	23	mask.bmp	blankscreen.bmp	wmd3.bmp	blankscreen.bmp	circle.bmp
208	real_a	real_bottomleft_diff_a	16	862	23	mask.bmp	blankscreen.bmp	wmn2.bmp	blankscreen.bmp	square.bmp
208	real_a	real_topleft_diff_a	17	692	23	mask.bmp	blankscreen.bmp	wfn3.bmp	blankscreen.bmp	square.bmp
208	real_a	real_bottomleft_same_a	18	746	23	mask.bmp	blankscreen.bmp	wfn5.bmp	blankscreen.bmp	square.bmp
208	real_a	real_bottomright_diff_a	19	662	18	mask.bmp	blankscreen.bmp	wmn3.bmp	blankscreen.bmp	circle.bmp
208	real_a	real_bottomright_same_a	20	645	23	mask.bmp	blankscreen.bmp	wmn5.bmp	blankscreen.bmp	square.bmp
208	real_b	real_bottomright_diff_b	1	638	18	mask.bmp	blankscreen.bmp	wfn8.bmp	blankscreen.bmp	circle.bmp
208	real_b	real_topright_diff_b	2	557	23	mask.bmp	blankscreen.bmp	wmn7.bmp	blankscreen.bmp	square.bmp
208	real_b	real_bottomleft_diff_b	3	713	18	mask.bmp	blankscreen.bmp	wmn8.bmp	blankscreen.bmp	circle.bmp
208	real_b	real_topright_diff_b	4	1022	18	mask.bmp	blankscreen.bmp	wfd8.bmp	blankscreen.bmp	square.bmp
208	real_b	real_bottomright_diff_b	5	853	18	mask.bmp	blankscreen.bmp	wmd7.bmp	blankscreen.bmp	circle.bmp
208	real_b	real_topright_same_b	6	548	18	mask.bmp	blankscreen.bmp	wmn10.bmp	blankscreen.bmp	circle.bmp
208	real_b	real_bottomleft_same_b	7	600	23	mask.bmp	blankscreen.bmp	wmd10.bmp	blankscreen.bmp	square.bmp
208	real_b	real_topleft_same_b	8	698	18	mask.bmp	blankscreen.bmp	wmn9.bmp	blankscreen.bmp	square.bmp
208	real_b	real_topleft_same_b	9	632	23	mask.bmp	blankscreen.bmp	wmd9.bmp	blankscreen.bmp	square.bmp
208	real_b	real_bottomright_same_b	10	616	18	mask.bmp	blankscreen.bmp	wfn10.bmp	blankscreen.bmp	circle.bmp
208	real_b	real_topleft_diff_b	11	1290	18	mask.bmp	blankscreen.bmp	wmd8.bmp	blankscreen.bmp	circle.bmp
208	real_b	real_bottomright_diff_b	12	926	18	mask.bmp	blankscreen.bmp	wfd6.bmp	blankscreen.bmp	circle.bmp
208	real_b	real_topright_same_b	13	721	23	mask.bmp	blankscreen.bmp	wfn9.bmp	blankscreen.bmp	square.bmp
208	real_b	real_topleft_diff_b	14	886	23	mask.bmp	blankscreen.bmp	wmn6.bmp	blankscreen.bmp	square.bmp
208	real_b	real_topleft_diff_b	15	739	23	mask.bmp	blankscreen.bmp	wfd7.bmp	blankscreen.bmp	square.bmp
208	real_b	real_bottomleft_diff_b	16	815	23	mask.bmp	blankscreen.bmp	wfn7.bmp	blankscreen.bmp	square.bmp
208	real_b	real_bottomleft_same_b	17	559	23	mask.bmp	blankscreen.bmp	wfd9.bmp	blankscreen.bmp	square.bmp
208	real_b	real_topright_diff_b	18	795	18	mask.bmp	blankscreen.bmp	wfn6.bmp	blankscreen.bmp	circle.bmp
208	real_b	real_bottomleft_diff_b	19	924	18	mask.bmp	blankscreen.bmp	wmd6.bmp	blankscreen.bmp	circle.bmp
208	real_b	real_bottomright_same_b	20	640	18	mask.bmp	blankscreen.bmp	wfd10.bmp	blankscreen.bmp	square.bmp
208	real_c	real_bottomright_same_c	1	864	23	mask.bmp	blankscreen.bmp	wmn2.bmp	blankscreen.bmp	square.bmp
208	real_c	real_bottomright_diff_c	2	566	23	mask.bmp	blankscreen.bmp	wfd5.bmp	blankscreen.bmp	square.bmp
208	real_c	real_bottomleft_diff_c	3	554	23	mask.bmp	blankscreen.bmp	wmd5.bmp	blankscreen.bmp	square.bmp
208	real_c	real_topleft_same_c	4	661	23	mask.bmp	blankscreen.bmp	wfn1.bmp	blankscreen.bmp	square.bmp
208	real_c	real_topleft_diff_c	5	636	18	mask.bmp	blankscreen.bmp	wmn5.bmp	blankscreen.bmp	circle.bmp
208	real_c	real_bottomleft_diff_c	6	652	18	mask.bmp	blankscreen.bmp	wfd4.bmp	blankscreen.bmp	circle.bmp
208	real_c	real_topright_same_c	7	644	23	mask.bmp	blankscreen.bmp	wmd1.bmp	blankscreen.bmp	square.bmp
208	real_c	real_topright_diff_c	8	635	23	mask.bmp	blankscreen.bmp	wmd4.bmp	blankscreen.bmp	square.bmp
208	real_c	real_topright_same_c	9	852	23	mask.bmp	blankscreen.bmp	wfn2.bmp	blankscreen.bmp	square.bmp
208	real_c	real_bottomright_diff_c	10	635	23	mask.bmp	blankscreen.bmp	wmn4.bmp	blankscreen.bmp	square.bmp
208	real_c	real_topleft_diff_c	11	860	23	mask.bmp	blankscreen.bmp	wfn4.bmp	blankscreen.bmp	square.bmp
208	real_c	real_topright_diff_c	12	594	23	mask.bmp	blankscreen.bmp	wmn3.bmp	blankscreen.bmp	square.bmp
208	real_c	real_bottomleft_same_c	13	556	23	mask.bmp	blankscreen.bmp	wfd2.bmp	blankscreen.bmp	square.bmp
208	real_c	real_topleft_diff_c	14	592	23	mask.bmp	blankscreen.bmp	wfd3.bmp	blankscreen.bmp	square.bmp
208	real_c	real_topleft_same_c	15	761	18	mask.bmp	blankscreen.bmp	wfd1.bmp	blankscreen.bmp	circle.bmp
208	real_c	real_bottomright_same_c	16	692	23	mask.bmp	blankscreen.bmp	wmd2.bmp	blankscreen.bmp	square.bmp
208	real_c	real_bottomleft_diff_c	17	722	23	mask.bmp	blankscreen.bmp	wfn3.bmp	blankscreen.bmp	square.bmp
208	real_c	real_bottomleft_same_c	18	566	23	mask.bmp	blankscreen.bmp	wmn1.bmp	blankscreen.bmp	square.bmp
208	real_c	real_bottomright_diff_c	19	818	18	mask.bmp	blankscreen.bmp	wmd3.bmp	blankscreen.bmp	circle.bmp
208	real_c	real_topright_diff_c	20	802	23	mask.bmp	blankscreen.bmp	wfn5.bmp	blankscreen.bmp	square.bmp
208	real_d	real_bottomleft_diff_d	1	729	23	mask.bmp	blankscreen.bmp	wmd8.bmp	blankscreen.bmp	square.bmp
208	real_d	real_topleft_same_d	2	381	23	mask.bmp	blankscreen.bmp	wmd6.bmp	blankscreen.bmp	square.bmp
208	real_d	real_bottomleft_same_d	3	576	23	mask.bmp	blankscreen.bmp	wfn6.bmp	blankscreen.bmp	square.bmp
208	real_d	real_bottomright_same_d	4	707	18	mask.bmp	blankscreen.bmp	wfn7.bmp	blankscreen.bmp	circle.bmp
208	real_d	real_topright_diff_d	5	592	23	mask.bmp	blankscreen.bmp	wfd9.bmp	blankscreen.bmp	square.bmp
208	real_d	real_topright_same_d	6	786	18	mask.bmp	blankscreen.bmp	wmd7.bmp	blankscreen.bmp	circle.bmp
208	real_d	real_bottomleft_diff_d	7	644	18	mask.bmp	blankscreen.bmp	wfd10.bmp	blankscreen.bmp	circle.bmp
208	real_d	real_bottomright_same_d	8	716	23	mask.bmp	blankscreen.bmp	wfd7.bmp	blankscreen.bmp	square.bmp
208	real_d	real_topright_same_d	9	713	18	mask.bmp	blankscreen.bmp	wfd6.bmp	blankscreen.bmp	square.bmp
208	real_d	real_bottomright_diff_d	10	526	23	mask.bmp	blankscreen.bmp	wfn9.bmp	blankscreen.bmp	square.bmp
208	real_d	real_bottomright_diff_d	11	579	23	mask.bmp	blankscreen.bmp	wmn10.bmp	blankscreen.bmp	square.bmp
208	real_d	real_topright_diff_d	12	621	23	mask.bmp	blankscreen.bmp	wmd10.bmp	blankscreen.bmp	circle.bmp
208	real_d	real_topleft_diff_d	13	814	23	mask.bmp	blankscreen.bmp	wfn10.bmp	blankscreen.bmp	circle.bmp
208	real_d	real_topright_diff_d	14	710	23	mask.bmp	blankscreen.bmp	wfn8.bmp	blankscreen.bmp	square.bmp
208	real_d	real_topleft_diff_d	15	707	18	mask.bmp	blankscreen.bmp	wmn8.bmp	blankscreen.bmp	circle.bmp
208	real_d	real_bottomleft_diff_d	16	1024	18	mask.bmp	blankscreen.bmp	wmn9.bmp	blankscreen.bmp	square.bmp
208	real_d	real_bottomleft_same_d	17	991	18	mask.bmp	blankscreen.bmp	wmn7.bmp	blankscreen.bmp	circle.bmp
208	real_d	real_bottomright_diff_d	18	696	18	mask.bmp	blankscreen.bmp	wfd8.bmp	blankscreen.bmp	circle.bmp
208	real_d	real_topleft_same_d	19	550	23	mask.bmp	blankscreen.bmp	wmn6.bmp	blankscreen.bmp	square.bmp
208	real_d	real_topleft_diff_d	20	1074	23	mask.bmp	blankscreen.bmp	wmd9.bmp	blankscreen.bmp	square.bmp
210	practice	practice_topright_same	1	1631	18	mask.bmp	blankscreen.bmp	practice4.jpg	blankscreen.bmp	square.bmp
210	practice	practice_topright_diff	2	708	23	mask.bmp	blankscreen.bmp	practice10.jpg	blankscreen.bmp	circle.bmp
210	practice	practice_topleft_same	3	49	23	mask.bmp	blankscreen.bmp	practice1.jpg	blankscreen.bmp	circle.bmp
210	practice	practice_topleft_diff	4	859	23	mask.bmp	blankscreen.bmp	practice9.jpg	blankscreen.bmp	square.bmp
210	practice	practice_bottomleft_same	5	1329	23	mask.bmp	blankscreen.bmp	practice5.jpg	blankscreen.bmp	square.bmp
210	practice	practice_bottomright_same	6	1716	23	mask.bmp	blankscreen.bmp	practice7.jpg	blankscreen.bmp	square.bmp
210	practice	practice_bottomright_same	7	94	23	mask.bmp	blankscreen.bmp	practice8.jpg	blankscreen.bmp	circle.bmp
210	practice	practice_topleft_same	8	205	23	mask.bmp	blankscreen.bmp	practice2.jpg	blankscreen.bmp	circle.bmp
210	practice	practice_topright_same	9	439	18	mask.bmp	blankscreen.bmp	practice3.jpg	blankscreen.bmp	circle.bmp
210	practice	practice_bottomright_diff	10	616	23	mask.bmp	blankscreen.bmp	practice12.jpg	blankscreen.bmp	square.bmp
210	practice	practice_bottomleft_same	11	569	23	mask.bmp	blankscreen.bmp	practice6.jpg	blankscreen.bmp	square.bmp
210	practice	practice_bottomleft_diff	12	684	23	mask.bmp	blankscreen.bmp	practice11.jpg	blankscreen.bmp	square.bmp
210	real_a	real_topleft_diff_a	1	529	23	mask.bmp	blankscreen.bmp	wmd2.bmp	blankscreen.bmp	square.bmp
210	real_a	real_bottomright_diff_a	2	446	23	mask.bmp	blankscreen.bmp	wmn3.bmp	blankscreen.bmp	square.bmp
210	real_a	real_topright_diff_a	3	550	18	mask.bmp	blankscreen.bmp	wmn1.bmp	blankscreen.bmp	circle.bmp
210	real_a	real_bottomleft_same_a	4	562	18	mask.bmp	blankscreen.bmp	wfn5.bmp	blankscreen.bmp	square.bmp
210	real_a	real_bottomleft_same_a	5	502	23	mask.bmp	blankscreen.bmp	wmd4.bmp	blankscreen.bmp	square.bmp
210	real_a	real_topright_diff_a	6	572	23	mask.bmp	blankscreen.bmp	wfd2.bmp	blankscreen.bmp	square.bmp
210	real_a	real_topleft_same_a	7	414	23	mask.bmp	blankscreen.bmp	wfd4.bmp	blankscreen.bmp	circle.bmp
210	real_a	real_topleft_diff_a	8	512	23	mask.bmp	blankscreen.bmp	wfn3.bmp	blankscreen.bmp	square.bmp
210	real_a	real_topleft_same_a	9	638	23	mask.bmp	blankscreen.bmp	wfn4.bmp	blankscreen.bmp	square.bmp
210	real_a	real_topright_diff_a	10	510	18	mask.bmp	blankscreen.bmp	wmd3.bmp	blankscreen.bmp	circle.bmp
210	real_a	real_bottomleft_diff_a	11	603	18	mask.bmp	blankscreen.bmp	wfn1.bmp	blankscreen.bmp	circle.bmp
210	real_a	real_bottomright_same_a	12	613	18	mask.bmp	blankscreen.bmp	wmn5.bmp	blankscreen.bmp	circle.bmp
210	real_a	real_bottomright_diff_a	13	694	23	mask.bmp	blankscreen.bmp	wmd1.bmp	blankscreen.bmp	square.bmp
210	real_a	real_bottomright_diff_a	14	491	18	mask.bmp	blankscreen.bmp	wfn2.bmp	blankscreen.bmp	circle.bmp
210	real_a	real_topright_same_a	15	562	18	mask.bmp	blankscreen.bmp	wfd5.bmp	blankscreen.bmp	circle.bmp
210	real_a	real_bottomleft_diff_a	16	629	23	mask.bmp	blankscreen.bmp	wfd3.bmp	blankscreen.bmp	square.bmp
210	real_a	real_topright_same_a	17	373	18	mask.bmp	blankscreen.bmp	wmn4.bmp	blankscreen.bmp	circle.bmp
210	real_a	real_topleft_diff_a	18	505	18	mask.bmp	blankscreen.bmp	wfd1.bmp	blankscreen.bmp	circle.bmp
210	real_a	real_bottomleft_diff_a	19	494	18	mask.bmp	blankscreen.bmp	wmn2.bmp	blankscreen.bmp	circle.bmp
210	real_a	real_bottomright_same_a	20	677	23	mask.bmp	blankscreen.bmp	wmd5.bmp	blankscreen.bmp	square.bmp
210	real_b	real_bottomleft_diff_b	1	661	18	mask.bmp	blankscreen.bmp	wfn7.bmp	blankscreen.bmp	circle.bmp
210	real_b	real_bottomright_same_b	2	1187	18	mask.bmp	blankscreen.bmp	wfn10.bmp	blankscreen.bmp	circle.bmp
210	real_b	real_topright_diff_b	3	788	23	mask.bmp	blankscreen.bmp	wmn7.bmp	blankscreen.bmp	square.bmp
210	real_b	real_topright_same_b	4	549	18	mask.bmp	blankscreen.bmp	wfn9.bmp	blankscreen.bmp	circle.bmp
210	real_b	real_bottomleft_same_b	5	545	23	mask.bmp	blankscreen.bmp	wmd10.bmp	blankscreen.bmp	square.bmp
210	real_b	real_topleft_same_b	6	813	23	mask.bmp	blankscreen.bmp	wmd9.bmp	blankscreen.bmp	square.bmp
210	real_b	real_topright_same_b	7	542	23	mask.bmp	blankscreen.bmp	wmn10.bmp	blankscreen.bmp	square.bmp
210	real_b	real_topleft_same_b	8	338	23	mask.bmp	blankscreen.bmp	wmn9.bmp	blankscreen.bmp	circle.bmp
210	real_b	real_bottomright_diff_b	9	567	23	mask.bmp	blankscreen.bmp	wmd7.bmp	blankscreen.bmp	square.bmp
210	real_b	real_topleft_diff_b	10	482	18	mask.bmp	blankscreen.bmp	wmn6.bmp	blankscreen.bmp	circle.bmp
210	real_b	real_bottomleft_diff_b	11	713	18	mask.bmp	blankscreen.bmp	wmd6.bmp	blankscreen.bmp	circle.bmp
210	real_b	real_topright_diff_b	12	630	23	mask.bmp	blankscreen.bmp	wfn6.bmp	blankscreen.bmp	square.bmp
210	real_b	real_bottomleft_same_b	13	454	23	mask.bmp	blankscreen.bmp	wfd9.bmp	blankscreen.bmp	square.bmp
210	real_b	real_bottomright_diff_b	14	614	23	mask.bmp	blankscreen.bmp	wfd6.bmp	blankscreen.bmp	square.bmp
210	real_b	real_topright_diff_b	15	407	23	mask.bmp	blankscreen.bmp	wfd8.bmp	blankscreen.bmp	circle.bmp
210	real_b	real_topleft_diff_b	16	513	23	mask.bmp	blankscreen.bmp	wmd8.bmp	blankscreen.bmp	square.bmp
210	real_b	real_bottomright_diff_b	17	543	18	mask.bmp	blankscreen.bmp	wfn8.bmp	blankscreen.bmp	circle.bmp
210	real_b	real_bottomright_same_b	18	475	23	mask.bmp	blankscreen.bmp	wfd10.bmp	blankscreen.bmp	square.bmp
210	real_b	real_bottomleft_diff_b	19	626	18	mask.bmp	blankscreen.bmp	wmn8.bmp	blankscreen.bmp	circle.bmp
210	real_b	real_topleft_diff_b	20	730	23	mask.bmp	blankscreen.bmp	wfd7.bmp	blankscreen.bmp	square.bmp
210	real_c	real_topleft_diff_c	1	517	23	mask.bmp	blankscreen.bmp	wfd3.bmp	blankscreen.bmp	square.bmp
210	real_c	real_topright_diff_c	2	571	23	mask.bmp	blankscreen.bmp	wfn5.bmp	blankscreen.bmp	square.bmp
210	real_c	real_bottomleft_diff_c	3	422	18	mask.bmp	blankscreen.bmp	wfn3.bmp	blankscreen.bmp	circle.bmp
210	real_c	real_bottomright_diff_c	4	559	23	mask.bmp	blankscreen.bmp	wmd3.bmp	blankscreen.bmp	circle.bmp
210	real_c	real_bottomright_diff_c	5	578	23	mask.bmp	blankscreen.bmp	wmn4.bmp	blankscreen.bmp	square.bmp
210	real_c	real_bottomright_same_c	6	477	18	mask.bmp	blankscreen.bmp	wmn2.bmp	blankscreen.bmp	circle.bmp
210	real_c	real_topright_diff_c	7	772	23	mask.bmp	blankscreen.bmp	wmn3.bmp	blankscreen.bmp	square.bmp
210	real_c	real_topright_same_c	8	590	18	mask.bmp	blankscreen.bmp	wfn2.bmp	blankscreen.bmp	circle.bmp
210	real_c	real_topleft_same_c	9	536	23	mask.bmp	blankscreen.bmp	wfn1.bmp	blankscreen.bmp	square.bmp
210	real_c	real_topleft_diff_c	10	572	18	mask.bmp	blankscreen.bmp	wmn5.bmp	blankscreen.bmp	circle.bmp
210	real_c	real_topleft_same_c	11	655	23	mask.bmp	blankscreen.bmp	wfd1.bmp	blankscreen.bmp	square.bmp
210	real_c	real_bottomleft_same_c	12	550	18	mask.bmp	blankscreen.bmp	wmn1.bmp	blankscreen.bmp	circle.bmp
210	real_c	real_bottomright_diff_c	13	554	18	mask.bmp	blankscreen.bmp	wfd5.bmp	blankscreen.bmp	circle.bmp
210	real_c	real_bottomleft_diff_c	14	525	18	mask.bmp	blankscreen.bmp	wfd4.bmp	blankscreen.bmp	circle.bmp
210	real_c	real_topright_same_c	15	562	18	mask.bmp	blankscreen.bmp	wmd1.bmp	blankscreen.bmp	circle.bmp
210	real_c	real_bottomright_same_c	16	589	18	mask.bmp	blankscreen.bmp	wmd2.bmp	blankscreen.bmp	circle.bmp
210	real_c	real_bottomleft_diff_c	17	495	18	mask.bmp	blankscreen.bmp	wmd5.bmp	blankscreen.bmp	circle.bmp
210	real_c	real_bottomleft_same_c	18	414	23	mask.bmp	blankscreen.bmp	wfd2.bmp	blankscreen.bmp	square.bmp
210	real_c	real_topright_diff_c	19	488	23	mask.bmp	blankscreen.bmp	wmd4.bmp	blankscreen.bmp	square.bmp
210	real_c	real_topleft_diff_c	20	766	23	mask.bmp	blankscreen.bmp	wfn4.bmp	blankscreen.bmp	square.bmp
210	real_d	real_topleft_diff_d	1	609	18	mask.bmp	blankscreen.bmp	wfn10.bmp	blankscreen.bmp	circle.bmp
210	real_d	real_topright_diff_d	2	483	18	mask.bmp	blankscreen.bmp	wmd10.bmp	blankscreen.bmp	circle.bmp
210	real_d	real_bottomleft_same_d	3	554	18	mask.bmp	blankscreen.bmp	wfn6.bmp	blankscreen.bmp	circle.bmp
210	real_d	real_topright_diff_d	4	605	23	mask.bmp	blankscreen.bmp	wfn8.bmp	blankscreen.bmp	square.bmp
210	real_d	real_bottomright_same_d	5	878	23	mask.bmp	blankscreen.bmp	wfd7.bmp	blankscreen.bmp	square.bmp
210	real_d	real_topleft_diff_d	6	516	23	mask.bmp	blankscreen.bmp	wmn8.bmp	blankscreen.bmp	square.bmp
210	real_d	real_topright_diff_d	7	490	18	mask.bmp	blankscreen.bmp	wfd9.bmp	blankscreen.bmp	circle.bmp
210	real_d	real_bottomright_same_d	8	592	18	mask.bmp	blankscreen.bmp	wfn7.bmp	blankscreen.bmp	circle.bmp
210	real_d	real_bottomleft_same_d	9	426	18	mask.bmp	blankscreen.bmp	wmn7.bmp	blankscreen.bmp	circle.bmp
210	real_d	real_topright_same_d	10	651	23	mask.bmp	blankscreen.bmp	wmd7.bmp	blankscreen.bmp	square.bmp
210	real_d	real_bottomright_diff_d	11	443	18	mask.bmp	blankscreen.bmp	wfd8.bmp	blankscreen.bmp	circle.bmp
210	real_d	real_bottomleft_diff_d	12	507	23	mask.bmp	blankscreen.bmp	wmd8.bmp	blankscreen.bmp	square.bmp
210	real_d	real_bottomleft_diff_d	13	545	23	mask.bmp	blankscreen.bmp	wfd10.bmp	blankscreen.bmp	square.bmp
210	real_d	real_topleft_same_d	14	445	18	mask.bmp	blankscreen.bmp	wmd6.bmp	blankscreen.bmp	circle.bmp
210	real_d	real_topleft_same_d	15	573	18	mask.bmp	blankscreen.bmp	wmn6.bmp	blankscreen.bmp	circle.bmp
210	real_d	real_topleft_diff_d	16	608	23	mask.bmp	blankscreen.bmp	wmd9.bmp	blankscreen.bmp	square.bmp
210	real_d	real_bottomleft_diff_d	17	577	18	mask.bmp	blankscreen.bmp	wmn9.bmp	blankscreen.bmp	circle.bmp
210	real_d	real_bottomright_diff_d	18	460	23	mask.bmp	blankscreen.bmp	wfn9.bmp	blankscreen.bmp	circle.bmp
210	real_d	real_bottomright_diff_d	19	764	23	mask.bmp	blankscreen.bmp	wmn10.bmp	blankscreen.bmp	square.bmp
210	real_d	real_topright_same_d	20	590	18	mask.bmp	blankscreen.bmp	wfd6.bmp	blankscreen.bmp	circle.bmp
216	practice	practice_topleft_diff	1	3066	18	mask.bmp	blankscreen.bmp	practice9.jpg	blankscreen.bmp	circle.bmp
216	practice	practice_bottomright_same	2	2002	23	mask.bmp	blankscreen.bmp	practice7.jpg	blankscreen.bmp	square.bmp
216	practice	practice_bottomleft_diff	3	1568	18	mask.bmp	blankscreen.bmp	practice11.jpg	blankscreen.bmp	circle.bmp
216	practice	practice_topleft_same	4	1952	18	mask.bmp	blankscreen.bmp	practice1.jpg	blankscreen.bmp	circle.bmp
216	practice	practice_bottomright_diff	5	1856	18	mask.bmp	blankscreen.bmp	practice12.jpg	blankscreen.bmp	circle.bmp
216	practice	practice_bottomleft_same	6	852	23	mask.bmp	blankscreen.bmp	practice6.jpg	blankscreen.bmp	square.bmp
216	practice	practice_bottomright_same	7	844	18	mask.bmp	blankscreen.bmp	practice8.jpg	blankscreen.bmp	circle.bmp
216	practice	practice_topright_diff	8	1027	23	mask.bmp	blankscreen.bmp	practice10.jpg	blankscreen.bmp	square.bmp
216	practice	practice_topright_same	9	770	23	mask.bmp	blankscreen.bmp	practice4.jpg	blankscreen.bmp	square.bmp
216	practice	practice_topright_same	10	622	18	mask.bmp	blankscreen.bmp	practice3.jpg	blankscreen.bmp	circle.bmp
216	practice	practice_topleft_same	11	893	18	mask.bmp	blankscreen.bmp	practice2.jpg	blankscreen.bmp	circle.bmp
216	practice	practice_bottomleft_same	12	570	18	mask.bmp	blankscreen.bmp	practice5.jpg	blankscreen.bmp	circle.bmp
216	real_a	real_bottomleft_diff_a	1	1301	18	mask.bmp	blankscreen.bmp	wfn1.bmp	blankscreen.bmp	circle.bmp
216	real_a	real_bottomleft_diff_a	2	665	23	mask.bmp	blankscreen.bmp	wfd3.bmp	blankscreen.bmp	square.bmp
216	real_a	real_topright_same_a	3	808	23	mask.bmp	blankscreen.bmp	wmn4.bmp	blankscreen.bmp	square.bmp
216	real_a	real_topleft_diff_a	4	873	23	mask.bmp	blankscreen.bmp	wfd1.bmp	blankscreen.bmp	square.bmp
216	real_a	real_topright_diff_a	5	934	23	mask.bmp	blankscreen.bmp	wmn1.bmp	blankscreen.bmp	square.bmp
216	real_a	real_topright_diff_a	6	1290	18	mask.bmp	blankscreen.bmp	wmd3.bmp	blankscreen.bmp	circle.bmp
216	real_a	real_bottomright_same_a	7	918	18	mask.bmp	blankscreen.bmp	wmd5.bmp	blankscreen.bmp	circle.bmp
216	real_a	real_bottomright_same_a	8	466	23	mask.bmp	blankscreen.bmp	wmn5.bmp	blankscreen.bmp	square.bmp
216	real_a	real_bottomright_diff_a	9	1354	23	mask.bmp	blankscreen.bmp	wmd1.bmp	blankscreen.bmp	square.bmp
216	real_a	real_topleft_diff_a	10	1092	23	mask.bmp	blankscreen.bmp	wmd2.bmp	blankscreen.bmp	square.bmp
216	real_a	real_topright_same_a	11	624	23	mask.bmp	blankscreen.bmp	wfd5.bmp	blankscreen.bmp	square.bmp
216	real_a	real_bottomleft_same_a	12	449	18	mask.bmp	blankscreen.bmp	wmd4.bmp	blankscreen.bmp	circle.bmp
216	real_a	real_topleft_same_a	13	489	23	mask.bmp	blankscreen.bmp	wfn4.bmp	blankscreen.bmp	square.bmp
216	real_a	real_topleft_same_a	14	799	18	mask.bmp	blankscreen.bmp	wfd4.bmp	blankscreen.bmp	circle.bmp
216	real_a	real_bottomleft_diff_a	15	721	18	mask.bmp	blankscreen.bmp	wmn2.bmp	blankscreen.bmp	circle.bmp
216	real_a	real_topright_diff_a	16	933	23	mask.bmp	blankscreen.bmp	wfd2.bmp	blankscreen.bmp	square.bmp
216	real_a	real_bottomleft_same_a	17	520	18	mask.bmp	blankscreen.bmp	wfn5.bmp	blankscreen.bmp	circle.bmp
216	real_a	real_bottomright_diff_a	18	637	23	mask.bmp	blankscreen.bmp	wfn2.bmp	blankscreen.bmp	square.bmp
216	real_a	real_topleft_diff_a	19	813	18	mask.bmp	blankscreen.bmp	wfn3.bmp	blankscreen.bmp	circle.bmp
216	real_a	real_bottomright_diff_a	20	702	23	mask.bmp	blankscreen.bmp	wmn3.bmp	blankscreen.bmp	square.bmp
216	real_b	real_topleft_same_b	1	676	23	mask.bmp	blankscreen.bmp	wmd9.bmp	blankscreen.bmp	square.bmp
216	real_b	real_topright_same_b	2	483	23	mask.bmp	blankscreen.bmp	wmn10.bmp	blankscreen.bmp	square.bmp
216	real_b	real_bottomleft_same_b	3	738	18	mask.bmp	blankscreen.bmp	wmd10.bmp	blankscreen.bmp	circle.bmp
216	real_b	real_bottomright_same_b	4	837	18	mask.bmp	blankscreen.bmp	wfn10.bmp	blankscreen.bmp	circle.bmp
216	real_b	real_topleft_diff_b	5	893	23	mask.bmp	blankscreen.bmp	wmd8.bmp	blankscreen.bmp	square.bmp
216	real_b	real_topright_diff_b	6	681	18	mask.bmp	blankscreen.bmp	wfd8.bmp	blankscreen.bmp	circle.bmp
216	real_b	real_topleft_same_b	7	960	23	mask.bmp	blankscreen.bmp	wmn9.bmp	blankscreen.bmp	square.bmp
216	real_b	real_topleft_diff_b	8	594	23	mask.bmp	blankscreen.bmp	wmn6.bmp	blankscreen.bmp	square.bmp
216	real_b	real_bottomright_diff_b	9	548	18	mask.bmp	blankscreen.bmp	wmd7.bmp	blankscreen.bmp	circle.bmp
216	real_b	real_topleft_diff_b	10	1224	23	mask.bmp	blankscreen.bmp	wfd7.bmp	blankscreen.bmp	square.bmp
216	real_b	real_bottomleft_diff_b	11	1039	18	mask.bmp	blankscreen.bmp	wmn8.bmp	blankscreen.bmp	circle.bmp
216	real_b	real_bottomleft_diff_b	12	773	23	mask.bmp	blankscreen.bmp	wfn7.bmp	blankscreen.bmp	square.bmp
216	real_b	real_bottomright_diff_b	13	879	23	mask.bmp	blankscreen.bmp	wfd6.bmp	blankscreen.bmp	square.bmp
216	real_b	real_bottomright_same_b	14	653	23	mask.bmp	blankscreen.bmp	wfd10.bmp	blankscreen.bmp	square.bmp
216	real_b	real_bottomright_diff_b	15	612	23	mask.bmp	blankscreen.bmp	wfn8.bmp	blankscreen.bmp	square.bmp
216	real_b	real_topright_diff_b	16	557	23	mask.bmp	blankscreen.bmp	wmn7.bmp	blankscreen.bmp	square.bmp
216	real_b	real_bottomleft_same_b	17	881	18	mask.bmp	blankscreen.bmp	wfd9.bmp	blankscreen.bmp	circle.bmp
216	real_b	real_topright_same_b	18	751	18	mask.bmp	blankscreen.bmp	wfn9.bmp	blankscreen.bmp	circle.bmp
216	real_b	real_bottomleft_diff_b	19	626	23	mask.bmp	blankscreen.bmp	wmd6.bmp	blankscreen.bmp	square.bmp
216	real_b	real_topright_diff_b	20	635	18	mask.bmp	blankscreen.bmp	wfn6.bmp	blankscreen.bmp	circle.bmp
216	real_c	real_bottomleft_diff_c	1	608	23	mask.bmp	blankscreen.bmp	wfd4.bmp	blankscreen.bmp	square.bmp
216	real_c	real_topleft_same_c	2	745	23	mask.bmp	blankscreen.bmp	wfd1.bmp	blankscreen.bmp	square.bmp
216	real_c	real_bottomleft_same_c	3	581	18	mask.bmp	blankscreen.bmp	wmn1.bmp	blankscreen.bmp	circle.bmp
216	real_c	real_topleft_diff_c	4	703	18	mask.bmp	blankscreen.bmp	wfd3.bmp	blankscreen.bmp	circle.bmp
216	real_c	real_topright_diff_c	5	612	18	mask.bmp	blankscreen.bmp	wmd4.bmp	blankscreen.bmp	square.bmp
216	real_c	real_topleft_diff_c	6	981	18	mask.bmp	blankscreen.bmp	wmn5.bmp	blankscreen.bmp	circle.bmp
216	real_c	real_topright_same_c	7	1007	18	mask.bmp	blankscreen.bmp	wmd1.bmp	blankscreen.bmp	circle.bmp
216	real_c	real_bottomright_diff_c	8	575	18	mask.bmp	blankscreen.bmp	wmn4.bmp	blankscreen.bmp	circle.bmp
216	real_c	real_bottomleft_diff_c	9	890	18	mask.bmp	blankscreen.bmp	wfn3.bmp	blankscreen.bmp	circle.bmp
216	real_c	real_bottomright_same_c	10	687	18	mask.bmp	blankscreen.bmp	wmn2.bmp	blankscreen.bmp	circle.bmp
216	real_c	real_bottomright_same_c	11	709	23	mask.bmp	blankscreen.bmp	wmd2.bmp	blankscreen.bmp	square.bmp
216	real_c	real_topright_diff_c	12	1026	18	mask.bmp	blankscreen.bmp	wfn5.bmp	blankscreen.bmp	circle.bmp
216	real_c	real_bottomright_diff_c	13	857	23	mask.bmp	blankscreen.bmp	wmd3.bmp	blankscreen.bmp	square.bmp
216	real_c	real_bottomleft_same_c	14	896	18	mask.bmp	blankscreen.bmp	wfd2.bmp	blankscreen.bmp	circle.bmp
216	real_c	real_topleft_diff_c	15	525	23	mask.bmp	blankscreen.bmp	wfn4.bmp	blankscreen.bmp	square.bmp
216	real_c	real_topleft_same_c	16	873	23	mask.bmp	blankscreen.bmp	wfn1.bmp	blankscreen.bmp	square.bmp
216	real_c	real_bottomleft_diff_c	17	951	18	mask.bmp	blankscreen.bmp	wmd5.bmp	blankscreen.bmp	circle.bmp
216	real_c	real_topright_diff_c	18	530	23	mask.bmp	blankscreen.bmp	wmn3.bmp	blankscreen.bmp	square.bmp
216	real_c	real_topright_same_c	19	775	23	mask.bmp	blankscreen.bmp	wfn2.bmp	blankscreen.bmp	square.bmp
216	real_c	real_bottomright_diff_c	20	777	23	mask.bmp	blankscreen.bmp	wfd5.bmp	blankscreen.bmp	square.bmp
216	real_d	real_bottomright_diff_d	1	661	18	mask.bmp	blankscreen.bmp	wfn9.bmp	blankscreen.bmp	circle.bmp
216	real_d	real_topright_same_d	2	837	23	mask.bmp	blankscreen.bmp	wmd7.bmp	blankscreen.bmp	square.bmp
216	real_d	real_bottomright_same_d	3	668	18	mask.bmp	blankscreen.bmp	wfd7.bmp	blankscreen.bmp	circle.bmp
216	real_d	real_bottomleft_diff_d	4	659	23	mask.bmp	blankscreen.bmp	wmd8.bmp	blankscreen.bmp	square.bmp
216	real_d	real_topleft_diff_d	5	498	23	mask.bmp	blankscreen.bmp	wmn8.bmp	blankscreen.bmp	square.bmp
216	real_d	real_bottomleft_same_d	6	577	23	mask.bmp	blankscreen.bmp	wfn6.bmp	blankscreen.bmp	square.bmp
216	real_d	real_bottomleft_diff_d	7	523	23	mask.bmp	blankscreen.bmp	wfd10.bmp	blankscreen.bmp	square.bmp
216	real_d	real_bottomright_same_d	8	481	23	mask.bmp	blankscreen.bmp	wfn7.bmp	blankscreen.bmp	square.bmp
216	real_d	real_topleft_same_d	9	712	18	mask.bmp	blankscreen.bmp	wmd6.bmp	blankscreen.bmp	circle.bmp
216	real_d	real_topleft_diff_d	10	884	23	mask.bmp	blankscreen.bmp	wfn10.bmp	blankscreen.bmp	square.bmp
216	real_d	real_bottomleft_diff_d	11	818	23	mask.bmp	blankscreen.bmp	wmn9.bmp	blankscreen.bmp	square.bmp
216	real_d	real_topright_diff_d	12	515	23	mask.bmp	blankscreen.bmp	wfn8.bmp	blankscreen.bmp	square.bmp
216	real_d	real_bottomright_diff_d	13	656	23	mask.bmp	blankscreen.bmp	wmn10.bmp	blankscreen.bmp	square.bmp
216	real_d	real_bottomright_diff_d	14	591	23	mask.bmp	blankscreen.bmp	wfd8.bmp	blankscreen.bmp	square.bmp
216	real_d	real_topright_diff_d	15	697	18	mask.bmp	blankscreen.bmp	wmd10.bmp	blankscreen.bmp	circle.bmp
216	real_d	real_topleft_diff_d	16	1511	23	mask.bmp	blankscreen.bmp	wmd9.bmp	blankscreen.bmp	circle.bmp
216	real_d	real_topright_diff_d	17	785	18	mask.bmp	blankscreen.bmp	wfd9.bmp	blankscreen.bmp	square.bmp
216	real_d	real_topright_same_d	18	755	18	mask.bmp	blankscreen.bmp	wfd6.bmp	blankscreen.bmp	circle.bmp
216	real_d	real_bottomleft_same_d	19	718	23	mask.bmp	blankscreen.bmp	wmn7.bmp	blankscreen.bmp	circle.bmp
216	real_d	real_topleft_same_d	20	1011	23	mask.bmp	blankscreen.bmp	wmn6.bmp	blankscreen.bmp	square.bmp
218	practice	practice_bottomleft_same	1	948	18	mask.bmp	blankscreen.bmp	practice5.jpg	blankscreen.bmp	circle.bmp
218	practice	practice_bottomright_diff	2	575	23	mask.bmp	blankscreen.bmp	practice12.jpg	blankscreen.bmp	square.bmp
218	practice	practice_topright_same	3	1041	23	mask.bmp	blankscreen.bmp	practice4.jpg	blankscreen.bmp	square.bmp
218	practice	practice_topleft_diff	4	936	18	mask.bmp	blankscreen.bmp	practice9.jpg	blankscreen.bmp	circle.bmp
218	practice	practice_topright_diff	5	571	18	mask.bmp	blankscreen.bmp	practice10.jpg	blankscreen.bmp	circle.bmp
218	practice	practice_bottomleft_same	6	598	23	mask.bmp	blankscreen.bmp	practice6.jpg	blankscreen.bmp	square.bmp
218	practice	practice_bottomleft_diff	7	648	23	mask.bmp	blankscreen.bmp	practice11.jpg	blankscreen.bmp	square.bmp
218	practice	practice_topleft_same	8	360	18	mask.bmp	blankscreen.bmp	practice2.jpg	blankscreen.bmp	circle.bmp
218	practice	practice_bottomright_same	9	532	23	mask.bmp	blankscreen.bmp	practice7.jpg	blankscreen.bmp	square.bmp
218	practice	practice_topleft_same	10	409	18	mask.bmp	blankscreen.bmp	practice1.jpg	blankscreen.bmp	circle.bmp
218	practice	practice_topright_same	11	715	18	mask.bmp	blankscreen.bmp	practice3.jpg	blankscreen.bmp	square.bmp
218	practice	practice_bottomright_same	12	784	23	mask.bmp	blankscreen.bmp	practice8.jpg	blankscreen.bmp	square.bmp
218	real_a	real_bottomright_same_a	1	650	18	mask.bmp	blankscreen.bmp	wmn5.bmp	blankscreen.bmp	circle.bmp
218	real_a	real_bottomleft_same_a	2	498	23	mask.bmp	blankscreen.bmp	wmd4.bmp	blankscreen.bmp	square.bmp
218	real_a	real_topright_diff_a	3	616	18	mask.bmp	blankscreen.bmp	wmn1.bmp	blankscreen.bmp	circle.bmp
218	real_a	real_topright_same_a	4	546	23	mask.bmp	blankscreen.bmp	wfd5.bmp	blankscreen.bmp	square.bmp
218	real_a	real_bottomright_diff_a	5	486	23	mask.bmp	blankscreen.bmp	wmn3.bmp	blankscreen.bmp	square.bmp
218	real_a	real_bottomleft_diff_a	6	548	23	mask.bmp	blankscreen.bmp	wmn2.bmp	blankscreen.bmp	square.bmp
218	real_a	real_bottomright_diff_a	7	720	23	mask.bmp	blankscreen.bmp	wfn2.bmp	blankscreen.bmp	square.bmp
218	real_a	real_bottomright_same_a	8	662	23	mask.bmp	blankscreen.bmp	wmd5.bmp	blankscreen.bmp	square.bmp
218	real_a	real_topright_diff_a	9	716	23	mask.bmp	blankscreen.bmp	wmd3.bmp	blankscreen.bmp	square.bmp
218	real_a	real_topright_diff_a	10	625	23	mask.bmp	blankscreen.bmp	wfd2.bmp	blankscreen.bmp	square.bmp
218	real_a	real_topleft_diff_a	11	433	23	mask.bmp	blankscreen.bmp	wfn3.bmp	blankscreen.bmp	square.bmp
218	real_a	real_topleft_diff_a	12	483	23	mask.bmp	blankscreen.bmp	wfd1.bmp	blankscreen.bmp	square.bmp
218	real_a	real_bottomleft_same_a	13	434	23	mask.bmp	blankscreen.bmp	wfn5.bmp	blankscreen.bmp	square.bmp
218	real_a	real_topleft_same_a	14	539	23	mask.bmp	blankscreen.bmp	wfn4.bmp	blankscreen.bmp	square.bmp
218	real_a	real_bottomleft_diff_a	15	463	18	mask.bmp	blankscreen.bmp	wfd3.bmp	blankscreen.bmp	circle.bmp
218	real_a	real_topright_same_a	16	879	23	mask.bmp	blankscreen.bmp	wmn4.bmp	blankscreen.bmp	square.bmp
218	real_a	real_topleft_same_a	17	580	18	mask.bmp	blankscreen.bmp	wfd4.bmp	blankscreen.bmp	circle.bmp
218	real_a	real_bottomright_diff_a	18	951	18	mask.bmp	blankscreen.bmp	wmd1.bmp	blankscreen.bmp	circle.bmp
218	real_a	real_topleft_diff_a	19	507	23	mask.bmp	blankscreen.bmp	wmd2.bmp	blankscreen.bmp	square.bmp
218	real_a	real_bottomleft_diff_a	20	831	23	mask.bmp	blankscreen.bmp	wfn1.bmp	blankscreen.bmp	square.bmp
218	real_b	real_bottomright_same_b	1	555	18	mask.bmp	blankscreen.bmp	wfd10.bmp	blankscreen.bmp	circle.bmp
218	real_b	real_topleft_same_b	2	622	18	mask.bmp	blankscreen.bmp	wmd9.bmp	blankscreen.bmp	circle.bmp
218	real_b	real_topright_same_b	3	647	23	mask.bmp	blankscreen.bmp	wfn9.bmp	blankscreen.bmp	square.bmp
218	real_b	real_bottomright_diff_b	4	622	18	mask.bmp	blankscreen.bmp	wfn8.bmp	blankscreen.bmp	circle.bmp
218	real_b	real_bottomleft_diff_b	5	607	18	mask.bmp	blankscreen.bmp	wmn8.bmp	blankscreen.bmp	circle.bmp
218	real_b	real_topleft_diff_b	6	536	18	mask.bmp	blankscreen.bmp	wmd8.bmp	blankscreen.bmp	circle.bmp
218	real_b	real_topleft_same_b	7	580	23	mask.bmp	blankscreen.bmp	wmn9.bmp	blankscreen.bmp	square.bmp
218	real_b	real_topright_diff_b	8	751	23	mask.bmp	blankscreen.bmp	wfd8.bmp	blankscreen.bmp	square.bmp
218	real_b	real_bottomleft_diff_b	9	691	18	mask.bmp	blankscreen.bmp	wfn7.bmp	blankscreen.bmp	circle.bmp
218	real_b	real_topright_diff_b	10	632	18	mask.bmp	blankscreen.bmp	wmn7.bmp	blankscreen.bmp	circle.bmp
218	real_b	real_bottomleft_diff_b	11	704	23	mask.bmp	blankscreen.bmp	wmd6.bmp	blankscreen.bmp	square.bmp
218	real_b	real_topleft_diff_b	12	709	23	mask.bmp	blankscreen.bmp	wmn6.bmp	blankscreen.bmp	square.bmp
218	real_b	real_bottomleft_same_b	13	554	18	mask.bmp	blankscreen.bmp	wfd9.bmp	blankscreen.bmp	circle.bmp
218	real_b	real_bottomright_same_b	14	854	23	mask.bmp	blankscreen.bmp	wfn10.bmp	blankscreen.bmp	square.bmp
218	real_b	real_topleft_diff_b	15	838	23	mask.bmp	blankscreen.bmp	wfd7.bmp	blankscreen.bmp	square.bmp
218	real_b	real_bottomright_diff_b	16	725	18	mask.bmp	blankscreen.bmp	wmd7.bmp	blankscreen.bmp	circle.bmp
218	real_b	real_bottomright_diff_b	17	473	23	mask.bmp	blankscreen.bmp	wfd6.bmp	blankscreen.bmp	square.bmp
218	real_b	real_topright_same_b	18	496	23	mask.bmp	blankscreen.bmp	wmn10.bmp	blankscreen.bmp	square.bmp
218	real_b	real_topright_diff_b	19	366	18	mask.bmp	blankscreen.bmp	wfn6.bmp	blankscreen.bmp	circle.bmp
218	real_b	real_bottomleft_same_b	20	570	18	mask.bmp	blankscreen.bmp	wmd10.bmp	blankscreen.bmp	circle.bmp
218	real_c	real_bottomleft_diff_c	1	554	18	mask.bmp	blankscreen.bmp	wmd5.bmp	blankscreen.bmp	circle.bmp
218	real_c	real_bottomright_diff_c	2	389	18	mask.bmp	blankscreen.bmp	wmn4.bmp	blankscreen.bmp	square.bmp
218	real_c	real_topleft_same_c	3	504	18	mask.bmp	blankscreen.bmp	wfd1.bmp	blankscreen.bmp	circle.bmp
218	real_c	real_topleft_same_c	4	549	18	mask.bmp	blankscreen.bmp	wfn1.bmp	blankscreen.bmp	circle.bmp
218	real_c	real_bottomright_diff_c	5	537	23	mask.bmp	blankscreen.bmp	wmd3.bmp	blankscreen.bmp	square.bmp
218	real_c	real_topright_diff_c	6	581	18	mask.bmp	blankscreen.bmp	wmn3.bmp	blankscreen.bmp	circle.bmp
218	real_c	real_bottomright_diff_c	7	432	18	mask.bmp	blankscreen.bmp	wfd5.bmp	blankscreen.bmp	circle.bmp
218	real_c	real_topleft_diff_c	8	489	18	mask.bmp	blankscreen.bmp	wmn5.bmp	blankscreen.bmp	circle.bmp
218	real_c	real_bottomleft_same_c	9	463	23	mask.bmp	blankscreen.bmp	wmn1.bmp	blankscreen.bmp	square.bmp
218	real_c	real_topright_same_c	10	743	18	mask.bmp	blankscreen.bmp	wmd1.bmp	blankscreen.bmp	circle.bmp
218	real_c	real_bottomright_same_c	11	570	23	mask.bmp	blankscreen.bmp	wmn2.bmp	blankscreen.bmp	square.bmp
218	real_c	real_bottomleft_same_c	12	677	18	mask.bmp	blankscreen.bmp	wfd2.bmp	blankscreen.bmp	square.bmp
218	real_c	real_topright_diff_c	13	684	23	mask.bmp	blankscreen.bmp	wfn5.bmp	blankscreen.bmp	square.bmp
218	real_c	real_topright_same_c	14	682	23	mask.bmp	blankscreen.bmp	wfn2.bmp	blankscreen.bmp	square.bmp
218	real_c	real_topleft_diff_c	15	528	23	mask.bmp	blankscreen.bmp	wfd3.bmp	blankscreen.bmp	square.bmp
218	real_c	real_bottomleft_diff_c	16	597	18	mask.bmp	blankscreen.bmp	wfd4.bmp	blankscreen.bmp	circle.bmp
218	real_c	real_bottomleft_diff_c	17	711	18	mask.bmp	blankscreen.bmp	wfn3.bmp	blankscreen.bmp	circle.bmp
218	real_c	real_topright_diff_c	18	636	18	mask.bmp	blankscreen.bmp	wmd4.bmp	blankscreen.bmp	circle.bmp
218	real_c	real_bottomright_same_c	19	461	23	mask.bmp	blankscreen.bmp	wmd2.bmp	blankscreen.bmp	square.bmp
218	real_c	real_topleft_diff_c	20	724	23	mask.bmp	blankscreen.bmp	wfn4.bmp	blankscreen.bmp	square.bmp
218	real_d	real_topleft_diff_d	1	521	18	mask.bmp	blankscreen.bmp	wmn8.bmp	blankscreen.bmp	circle.bmp
218	real_d	real_bottomleft_diff_d	2	526	23	mask.bmp	blankscreen.bmp	wmn9.bmp	blankscreen.bmp	square.bmp
218	real_d	real_bottomleft_same_d	3	579	18	mask.bmp	blankscreen.bmp	wfn6.bmp	blankscreen.bmp	circle.bmp
218	real_d	real_bottomleft_diff_d	4	566	23	mask.bmp	blankscreen.bmp	wfd10.bmp	blankscreen.bmp	square.bmp
218	real_d	real_topleft_same_d	5	681	23	mask.bmp	blankscreen.bmp	wmn6.bmp	blankscreen.bmp	square.bmp
218	real_d	real_topright_diff_d	6	615	18	mask.bmp	blankscreen.bmp	wfd9.bmp	blankscreen.bmp	circle.bmp
218	real_d	real_topleft_same_d	7	505	18	mask.bmp	blankscreen.bmp	wmd6.bmp	blankscreen.bmp	circle.bmp
218	real_d	real_topleft_diff_d	8	494	18	mask.bmp	blankscreen.bmp	wmd9.bmp	blankscreen.bmp	circle.bmp
218	real_d	real_topright_diff_d	9	572	18	mask.bmp	blankscreen.bmp	wfn8.bmp	blankscreen.bmp	circle.bmp
218	real_d	real_topright_same_d	10	647	18	mask.bmp	blankscreen.bmp	wmd7.bmp	blankscreen.bmp	circle.bmp
218	real_d	real_bottomright_diff_d	11	487	18	mask.bmp	blankscreen.bmp	wfd8.bmp	blankscreen.bmp	circle.bmp
218	real_d	real_bottomright_diff_d	12	629	23	mask.bmp	blankscreen.bmp	wfn9.bmp	blankscreen.bmp	square.bmp
218	real_d	real_topleft_diff_d	13	469	18	mask.bmp	blankscreen.bmp	wfn10.bmp	blankscreen.bmp	circle.bmp
218	real_d	real_topright_same_d	14	629	23	mask.bmp	blankscreen.bmp	wfd6.bmp	blankscreen.bmp	square.bmp
218	real_d	real_bottomright_diff_d	15	653	18	mask.bmp	blankscreen.bmp	wmn10.bmp	blankscreen.bmp	circle.bmp
218	real_d	real_bottomleft_same_d	16	605	23	mask.bmp	blankscreen.bmp	wmn7.bmp	blankscreen.bmp	square.bmp
218	real_d	real_bottomright_same_d	17	662	18	mask.bmp	blankscreen.bmp	wfn7.bmp	blankscreen.bmp	circle.bmp
218	real_d	real_bottomleft_diff_d	18	629	18	mask.bmp	blankscreen.bmp	wmd8.bmp	blankscreen.bmp	circle.bmp
218	real_d	real_bottomright_same_d	19	678	23	mask.bmp	blankscreen.bmp	wfd7.bmp	blankscreen.bmp	square.bmp
218	real_d	real_topright_diff_d	20	844	23	mask.bmp	blankscreen.bmp	wmd10.bmp	blankscreen.bmp	square.bmp
221	practice	practice_bottomleft_diff	1	2740	23	mask.bmp	blankscreen.bmp	practice11.jpg	blankscreen.bmp	square.bmp
221	practice	practice_bottomright_same	2	1018	23	mask.bmp	blankscreen.bmp	practice7.jpg	blankscreen.bmp	square.bmp
221	practice	practice_topright_diff	3	1051	23	mask.bmp	blankscreen.bmp	practice10.jpg	blankscreen.bmp	square.bmp
221	practice	practice_bottomright_diff	4	681	18	mask.bmp	blankscreen.bmp	practice12.jpg	blankscreen.bmp	circle.bmp
221	practice	practice_topleft_diff	5	903	23	mask.bmp	blankscreen.bmp	practice9.jpg	blankscreen.bmp	square.bmp
221	practice	practice_topright_same	6	724	23	mask.bmp	blankscreen.bmp	practice3.jpg	blankscreen.bmp	square.bmp
221	practice	practice_bottomleft_same	7	832	23	mask.bmp	blankscreen.bmp	practice6.jpg	blankscreen.bmp	square.bmp
221	practice	practice_topleft_same	8	504	18	mask.bmp	blankscreen.bmp	practice1.jpg	blankscreen.bmp	circle.bmp
221	practice	practice_topright_same	9	566	23	mask.bmp	blankscreen.bmp	practice4.jpg	blankscreen.bmp	square.bmp
221	practice	practice_bottomright_same	10	657	23	mask.bmp	blankscreen.bmp	practice8.jpg	blankscreen.bmp	square.bmp
221	practice	practice_bottomleft_same	11	552	18	mask.bmp	blankscreen.bmp	practice5.jpg	blankscreen.bmp	circle.bmp
221	practice	practice_topleft_same	12	604	23	mask.bmp	blankscreen.bmp	practice2.jpg	blankscreen.bmp	square.bmp
221	real_a	real_bottomleft_diff_a	1	510	23	mask.bmp	blankscreen.bmp	wfd3.bmp	blankscreen.bmp	square.bmp
221	real_a	real_topright_diff_a	2	531	23	mask.bmp	blankscreen.bmp	wmn1.bmp	blankscreen.bmp	square.bmp
221	real_a	real_topleft_same_a	3	512	18	mask.bmp	blankscreen.bmp	wfn4.bmp	blankscreen.bmp	circle.bmp
221	real_a	real_bottomright_diff_a	4	590	18	mask.bmp	blankscreen.bmp	wmn3.bmp	blankscreen.bmp	circle.bmp
221	real_a	real_topleft_diff_a	5	544	18	mask.bmp	blankscreen.bmp	wfd1.bmp	blankscreen.bmp	circle.bmp
221	real_a	real_bottomleft_diff_a	6	596	18	mask.bmp	blankscreen.bmp	wmn2.bmp	blankscreen.bmp	circle.bmp
221	real_a	real_topleft_diff_a	7	398	23	mask.bmp	blankscreen.bmp	wmd2.bmp	blankscreen.bmp	square.bmp
221	real_a	real_bottomleft_same_a	8	608	23	mask.bmp	blankscreen.bmp	wmd4.bmp	blankscreen.bmp	square.bmp
221	real_a	real_topleft_same_a	9	657	23	mask.bmp	blankscreen.bmp	wfd4.bmp	blankscreen.bmp	square.bmp
221	real_a	real_bottomright_same_a	10	569	18	mask.bmp	blankscreen.bmp	wmd5.bmp	blankscreen.bmp	circle.bmp
221	real_a	real_topleft_diff_a	11	501	18	mask.bmp	blankscreen.bmp	wfn3.bmp	blankscreen.bmp	circle.bmp
221	real_a	real_topright_diff_a	12	394	23	mask.bmp	blankscreen.bmp	wmd3.bmp	blankscreen.bmp	square.bmp
221	real_a	real_bottomright_diff_a	13	557	23	mask.bmp	blankscreen.bmp	wmd1.bmp	blankscreen.bmp	square.bmp
221	real_a	real_topright_same_a	14	680	18	mask.bmp	blankscreen.bmp	wfd5.bmp	blankscreen.bmp	circle.bmp
221	real_a	real_bottomright_same_a	15	1015	23	mask.bmp	blankscreen.bmp	wmn5.bmp	blankscreen.bmp	square.bmp
221	real_a	real_topright_same_a	16	495	23	mask.bmp	blankscreen.bmp	wmn4.bmp	blankscreen.bmp	square.bmp
221	real_a	real_bottomleft_same_a	17	453	18	mask.bmp	blankscreen.bmp	wfn5.bmp	blankscreen.bmp	circle.bmp
221	real_a	real_bottomleft_diff_a	18	485	18	mask.bmp	blankscreen.bmp	wfn1.bmp	blankscreen.bmp	circle.bmp
221	real_a	real_bottomright_diff_a	19	548	18	mask.bmp	blankscreen.bmp	wfn2.bmp	blankscreen.bmp	circle.bmp
221	real_a	real_topright_diff_a	20	680	18	mask.bmp	blankscreen.bmp	wfd2.bmp	blankscreen.bmp	circle.bmp
221	real_b	real_topleft_diff_b	1	717	18	mask.bmp	blankscreen.bmp	wfd7.bmp	blankscreen.bmp	circle.bmp
221	real_b	real_topleft_same_b	2	482	23	mask.bmp	blankscreen.bmp	wmn9.bmp	blankscreen.bmp	square.bmp
221	real_b	real_topright_diff_b	3	961	23	mask.bmp	blankscreen.bmp	wfn6.bmp	blankscreen.bmp	square.bmp
221	real_b	real_bottomright_diff_b	4	507	23	mask.bmp	blankscreen.bmp	wmd7.bmp	blankscreen.bmp	square.bmp
221	real_b	real_bottomleft_same_b	5	929	18	mask.bmp	blankscreen.bmp	wfd9.bmp	blankscreen.bmp	circle.bmp
221	real_b	real_topright_diff_b	6	693	18	mask.bmp	blankscreen.bmp	wfd8.bmp	blankscreen.bmp	circle.bmp
221	real_b	real_topleft_diff_b	7	586	23	mask.bmp	blankscreen.bmp	wmn6.bmp	blankscreen.bmp	square.bmp
221	real_b	real_topleft_same_b	8	716	18	mask.bmp	blankscreen.bmp	wmd9.bmp	blankscreen.bmp	circle.bmp
221	real_b	real_topright_same_b	9	489	18	mask.bmp	blankscreen.bmp	wfn9.bmp	blankscreen.bmp	circle.bmp
221	real_b	real_bottomleft_diff_b	10	551	18	mask.bmp	blankscreen.bmp	wfn7.bmp	blankscreen.bmp	circle.bmp
221	real_b	real_topright_diff_b	11	611	18	mask.bmp	blankscreen.bmp	wmn7.bmp	blankscreen.bmp	circle.bmp
221	real_b	real_bottomleft_diff_b	12	653	23	mask.bmp	blankscreen.bmp	wmn8.bmp	blankscreen.bmp	square.bmp
221	real_b	real_bottomright_diff_b	13	701	23	mask.bmp	blankscreen.bmp	wfd6.bmp	blankscreen.bmp	square.bmp
221	real_b	real_bottomleft_same_b	14	626	18	mask.bmp	blankscreen.bmp	wmd10.bmp	blankscreen.bmp	circle.bmp
221	real_b	real_topright_same_b	15	643	23	mask.bmp	blankscreen.bmp	wmn10.bmp	blankscreen.bmp	square.bmp
221	real_b	real_bottomleft_diff_b	16	674	23	mask.bmp	blankscreen.bmp	wmd6.bmp	blankscreen.bmp	square.bmp
221	real_b	real_bottomright_diff_b	17	617	18	mask.bmp	blankscreen.bmp	wfn8.bmp	blankscreen.bmp	circle.bmp
221	real_b	real_topleft_diff_b	18	666	23	mask.bmp	blankscreen.bmp	wmd8.bmp	blankscreen.bmp	square.bmp
221	real_b	real_bottomright_same_b	19	657	18	mask.bmp	blankscreen.bmp	wfd10.bmp	blankscreen.bmp	circle.bmp
221	real_b	real_bottomright_same_b	20	584	18	mask.bmp	blankscreen.bmp	wfn10.bmp	blankscreen.bmp	circle.bmp
221	real_c	real_bottomright_diff_c	1	576	18	mask.bmp	blankscreen.bmp	wfd5.bmp	blankscreen.bmp	circle.bmp
221	real_c	real_bottomleft_diff_c	2	482	18	mask.bmp	blankscreen.bmp	wfd4.bmp	blankscreen.bmp	circle.bmp
221	real_c	real_topright_same_c	3	529	23	mask.bmp	blankscreen.bmp	wmd1.bmp	blankscreen.bmp	square.bmp
221	real_c	real_bottomleft_diff_c	4	702	18	mask.bmp	blankscreen.bmp	wfn3.bmp	blankscreen.bmp	circle.bmp
221	real_c	real_bottomleft_same_c	5	580	23	mask.bmp	blankscreen.bmp	wfd2.bmp	blankscreen.bmp	square.bmp
221	real_c	real_topleft_diff_c	6	591	23	mask.bmp	blankscreen.bmp	wfd3.bmp	blankscreen.bmp	square.bmp
221	real_c	real_bottomright_diff_c	7	633	23	mask.bmp	blankscreen.bmp	wmd3.bmp	blankscreen.bmp	square.bmp
221	real_c	real_topright_diff_c	8	546	23	mask.bmp	blankscreen.bmp	wmn3.bmp	blankscreen.bmp	square.bmp
221	real_c	real_bottomright_same_c	9	541	18	mask.bmp	blankscreen.bmp	wmn2.bmp	blankscreen.bmp	circle.bmp
221	real_c	real_topleft_diff_c	10	705	18	mask.bmp	blankscreen.bmp	wfn4.bmp	blankscreen.bmp	circle.bmp
221	real_c	real_bottomright_same_c	11	702	18	mask.bmp	blankscreen.bmp	wmd2.bmp	blankscreen.bmp	circle.bmp
221	real_c	real_bottomleft_diff_c	12	636	23	mask.bmp	blankscreen.bmp	wmd5.bmp	blankscreen.bmp	square.bmp
221	real_c	real_topleft_same_c	13	645	18	mask.bmp	blankscreen.bmp	wfn1.bmp	blankscreen.bmp	circle.bmp
221	real_c	real_topright_diff_c	14	676	18	mask.bmp	blankscreen.bmp	wfn5.bmp	blankscreen.bmp	circle.bmp
221	real_c	real_topleft_diff_c	15	618	18	mask.bmp	blankscreen.bmp	wmn5.bmp	blankscreen.bmp	circle.bmp
221	real_c	real_bottomright_diff_c	16	572	23	mask.bmp	blankscreen.bmp	wmn4.bmp	blankscreen.bmp	square.bmp
221	real_c	real_bottomleft_same_c	17	518	23	mask.bmp	blankscreen.bmp	wmn1.bmp	blankscreen.bmp	square.bmp
221	real_c	real_topright_same_c	18	500	18	mask.bmp	blankscreen.bmp	wfn2.bmp	blankscreen.bmp	circle.bmp
221	real_c	real_topleft_same_c	19	746	18	mask.bmp	blankscreen.bmp	wfd1.bmp	blankscreen.bmp	circle.bmp
221	real_c	real_topright_diff_c	20	502	18	mask.bmp	blankscreen.bmp	wmd4.bmp	blankscreen.bmp	circle.bmp
221	real_d	real_bottomright_diff_d	1	986	23	mask.bmp	blankscreen.bmp	wfn9.bmp	blankscreen.bmp	square.bmp
221	real_d	real_bottomleft_diff_d	2	395	23	mask.bmp	blankscreen.bmp	wfd10.bmp	blankscreen.bmp	square.bmp
221	real_d	real_topleft_diff_d	3	494	23	mask.bmp	blankscreen.bmp	wfn10.bmp	blankscreen.bmp	square.bmp
221	real_d	real_bottomright_same_d	4	532	23	mask.bmp	blankscreen.bmp	wfn7.bmp	blankscreen.bmp	square.bmp
221	real_d	real_topright_same_d	5	633	18	mask.bmp	blankscreen.bmp	wfd6.bmp	blankscreen.bmp	circle.bmp
221	real_d	real_bottomleft_same_d	6	473	23	mask.bmp	blankscreen.bmp	wfn6.bmp	blankscreen.bmp	square.bmp
221	real_d	real_topright_same_d	7	600	18	mask.bmp	blankscreen.bmp	wmd7.bmp	blankscreen.bmp	circle.bmp
221	real_d	real_bottomleft_diff_d	8	578	18	mask.bmp	blankscreen.bmp	wmn9.bmp	blankscreen.bmp	circle.bmp
221	real_d	real_bottomleft_diff_d	9	549	23	mask.bmp	blankscreen.bmp	wmd8.bmp	blankscreen.bmp	square.bmp
221	real_d	real_topright_diff_d	10	521	18	mask.bmp	blankscreen.bmp	wfn8.bmp	blankscreen.bmp	circle.bmp
221	real_d	real_bottomright_same_d	11	718	23	mask.bmp	blankscreen.bmp	wfd7.bmp	blankscreen.bmp	square.bmp
221	real_d	real_topright_diff_d	12	739	18	mask.bmp	blankscreen.bmp	wfd9.bmp	blankscreen.bmp	circle.bmp
221	real_d	real_bottomright_diff_d	13	478	23	mask.bmp	blankscreen.bmp	wfd8.bmp	blankscreen.bmp	circle.bmp
221	real_d	real_topleft_diff_d	14	997	18	mask.bmp	blankscreen.bmp	wmd9.bmp	blankscreen.bmp	circle.bmp
221	real_d	real_topleft_same_d	15	606	18	mask.bmp	blankscreen.bmp	wmn6.bmp	blankscreen.bmp	circle.bmp
221	real_d	real_topleft_same_d	16	599	18	mask.bmp	blankscreen.bmp	wmd6.bmp	blankscreen.bmp	circle.bmp
221	real_d	real_topright_diff_d	17	657	18	mask.bmp	blankscreen.bmp	wmd10.bmp	blankscreen.bmp	circle.bmp
221	real_d	real_bottomright_diff_d	18	544	23	mask.bmp	blankscreen.bmp	wmn10.bmp	blankscreen.bmp	square.bmp
221	real_d	real_topleft_diff_d	19	692	18	mask.bmp	blankscreen.bmp	wmn8.bmp	blankscreen.bmp	circle.bmp
221	real_d	real_bottomleft_same_d	20	786	18	mask.bmp	blankscreen.bmp	wmn7.bmp	blankscreen.bmp	circle.bmp
223	practice	practice_topright_same	1	819	18	mask.bmp	blankscreen.bmp	practice3.jpg	blankscreen.bmp	circle.bmp
223	practice	practice_topleft_same	2	436	18	mask.bmp	blankscreen.bmp	practice2.jpg	blankscreen.bmp	circle.bmp
223	practice	practice_topright_diff	3	636	23	mask.bmp	blankscreen.bmp	practice10.jpg	blankscreen.bmp	square.bmp
223	practice	practice_topleft_diff	4	588	18	mask.bmp	blankscreen.bmp	practice9.jpg	blankscreen.bmp	circle.bmp
223	practice	practice_bottomleft_same	5	390	18	mask.bmp	blankscreen.bmp	practice6.jpg	blankscreen.bmp	circle.bmp
223	practice	practice_topright_same	6	473	23	mask.bmp	blankscreen.bmp	practice4.jpg	blankscreen.bmp	square.bmp
223	practice	practice_bottomright_same	7	560	18	mask.bmp	blankscreen.bmp	practice8.jpg	blankscreen.bmp	circle.bmp
223	practice	practice_bottomright_diff	8	491	18	mask.bmp	blankscreen.bmp	practice12.jpg	blankscreen.bmp	circle.bmp
223	practice	practice_topleft_same	9	497	23	mask.bmp	blankscreen.bmp	practice1.jpg	blankscreen.bmp	square.bmp
223	practice	practice_bottomleft_same	10	424	18	mask.bmp	blankscreen.bmp	practice5.jpg	blankscreen.bmp	circle.bmp
223	practice	practice_bottomright_same	11	409	23	mask.bmp	blankscreen.bmp	practice7.jpg	blankscreen.bmp	square.bmp
223	practice	practice_bottomleft_diff	12	482	23	mask.bmp	blankscreen.bmp	practice11.jpg	blankscreen.bmp	square.bmp
223	real_a	real_topright_diff_a	1	828	23	mask.bmp	blankscreen.bmp	wmn1.bmp	blankscreen.bmp	square.bmp
223	real_a	real_bottomleft_diff_a	2	604	18	mask.bmp	blankscreen.bmp	wmn2.bmp	blankscreen.bmp	circle.bmp
223	real_a	real_bottomright_diff_a	3	606	23	mask.bmp	blankscreen.bmp	wfn2.bmp	blankscreen.bmp	square.bmp
223	real_a	real_topleft_diff_a	4	679	18	mask.bmp	blankscreen.bmp	wmd2.bmp	blankscreen.bmp	circle.bmp
223	real_a	real_topright_same_a	5	917	18	mask.bmp	blankscreen.bmp	wfd5.bmp	blankscreen.bmp	circle.bmp
223	real_a	real_bottomleft_diff_a	6	785	18	mask.bmp	blankscreen.bmp	wfn1.bmp	blankscreen.bmp	circle.bmp
223	real_a	real_topright_same_a	7	851	18	mask.bmp	blankscreen.bmp	wmn4.bmp	blankscreen.bmp	circle.bmp
223	real_a	real_bottomright_diff_a	8	819	23	mask.bmp	blankscreen.bmp	wmd1.bmp	blankscreen.bmp	square.bmp
223	real_a	real_bottomright_same_a	9	771	23	mask.bmp	blankscreen.bmp	wmd5.bmp	blankscreen.bmp	square.bmp
223	real_a	real_bottomleft_same_a	10	829	18	mask.bmp	blankscreen.bmp	wfn5.bmp	blankscreen.bmp	circle.bmp
223	real_a	real_topleft_diff_a	11	670	23	mask.bmp	blankscreen.bmp	wfn3.bmp	blankscreen.bmp	square.bmp
223	real_a	real_topright_diff_a	12	748	23	mask.bmp	blankscreen.bmp	wfd2.bmp	blankscreen.bmp	square.bmp
223	real_a	real_bottomleft_diff_a	13	824	23	mask.bmp	blankscreen.bmp	wfd3.bmp	blankscreen.bmp	square.bmp
223	real_a	real_topleft_same_a	14	1056	23	mask.bmp	blankscreen.bmp	wfn4.bmp	blankscreen.bmp	square.bmp
223	real_a	real_bottomright_diff_a	15	534	18	mask.bmp	blankscreen.bmp	wmn3.bmp	blankscreen.bmp	circle.bmp
223	real_a	real_bottomleft_same_a	16	802	23	mask.bmp	blankscreen.bmp	wmd4.bmp	blankscreen.bmp	square.bmp
223	real_a	real_bottomright_same_a	17	588	23	mask.bmp	blankscreen.bmp	wmn5.bmp	blankscreen.bmp	square.bmp
223	real_a	real_topright_diff_a	18	566	23	mask.bmp	blankscreen.bmp	wmd3.bmp	blankscreen.bmp	square.bmp
223	real_a	real_topleft_same_a	19	585	18	mask.bmp	blankscreen.bmp	wfd4.bmp	blankscreen.bmp	circle.bmp
223	real_a	real_topleft_diff_a	20	620	18	mask.bmp	blankscreen.bmp	wfd1.bmp	blankscreen.bmp	circle.bmp
223	real_b	real_topright_diff_b	1	473	23	mask.bmp	blankscreen.bmp	wfn6.bmp	blankscreen.bmp	square.bmp
223	real_b	real_bottomleft_diff_b	2	528	23	mask.bmp	blankscreen.bmp	wfn7.bmp	blankscreen.bmp	square.bmp
223	real_b	real_topright_diff_b	3	373	18	mask.bmp	blankscreen.bmp	wfd8.bmp	blankscreen.bmp	circle.bmp
223	real_b	real_topright_same_b	4	472	18	mask.bmp	blankscreen.bmp	wmn10.bmp	blankscreen.bmp	circle.bmp
223	real_b	real_bottomleft_same_b	5	399	18	mask.bmp	blankscreen.bmp	wmd10.bmp	blankscreen.bmp	circle.bmp
223	real_b	real_bottomright_diff_b	6	561	18	mask.bmp	blankscreen.bmp	wfn8.bmp	blankscreen.bmp	circle.bmp
223	real_b	real_bottomright_diff_b	7	493	23	mask.bmp	blankscreen.bmp	wmd7.bmp	blankscreen.bmp	square.bmp
223	real_b	real_topleft_same_b	8	627	23	mask.bmp	blankscreen.bmp	wmd9.bmp	blankscreen.bmp	square.bmp
223	real_b	real_topleft_diff_b	9	579	23	mask.bmp	blankscreen.bmp	wmd8.bmp	blankscreen.bmp	square.bmp
223	real_b	real_topright_same_b	10	438	18	mask.bmp	blankscreen.bmp	wfn9.bmp	blankscreen.bmp	circle.bmp
223	real_b	real_bottomright_same_b	11	470	18	mask.bmp	blankscreen.bmp	wfn10.bmp	blankscreen.bmp	circle.bmp
223	real_b	real_topright_diff_b	12	646	18	mask.bmp	blankscreen.bmp	wmn7.bmp	blankscreen.bmp	circle.bmp
223	real_b	real_topleft_same_b	13	725	23	mask.bmp	blankscreen.bmp	wmn9.bmp	blankscreen.bmp	square.bmp
223	real_b	real_topleft_diff_b	14	538	23	mask.bmp	blankscreen.bmp	wfd7.bmp	blankscreen.bmp	square.bmp
223	real_b	real_bottomright_diff_b	15	534	18	mask.bmp	blankscreen.bmp	wfd6.bmp	blankscreen.bmp	circle.bmp
223	real_b	real_topleft_diff_b	16	499	18	mask.bmp	blankscreen.bmp	wmn6.bmp	blankscreen.bmp	circle.bmp
223	real_b	real_bottomleft_diff_b	17	505	18	mask.bmp	blankscreen.bmp	wmd6.bmp	blankscreen.bmp	circle.bmp
223	real_b	real_bottomleft_same_b	18	583	23	mask.bmp	blankscreen.bmp	wfd9.bmp	blankscreen.bmp	square.bmp
223	real_b	real_bottomleft_diff_b	19	489	23	mask.bmp	blankscreen.bmp	wmn8.bmp	blankscreen.bmp	square.bmp
223	real_b	real_bottomright_same_b	20	535	18	mask.bmp	blankscreen.bmp	wfd10.bmp	blankscreen.bmp	circle.bmp
223	real_c	real_topleft_diff_c	1	448	23	mask.bmp	blankscreen.bmp	wmn5.bmp	blankscreen.bmp	square.bmp
223	real_c	real_topright_diff_c	2	712	18	mask.bmp	blankscreen.bmp	wmd4.bmp	blankscreen.bmp	circle.bmp
223	real_c	real_bottomright_same_c	3	437	23	mask.bmp	blankscreen.bmp	wmd2.bmp	blankscreen.bmp	square.bmp
223	real_c	real_topright_diff_c	4	550	23	mask.bmp	blankscreen.bmp	wmn3.bmp	blankscreen.bmp	square.bmp
223	real_c	real_topright_diff_c	5	490	23	mask.bmp	blankscreen.bmp	wfn5.bmp	blankscreen.bmp	square.bmp
223	real_c	real_topleft_same_c	6	704	23	mask.bmp	blankscreen.bmp	wfn1.bmp	blankscreen.bmp	square.bmp
223	real_c	real_bottomright_diff_c	7	501	18	mask.bmp	blankscreen.bmp	wmd3.bmp	blankscreen.bmp	circle.bmp
223	real_c	real_topright_same_c	8	523	23	mask.bmp	blankscreen.bmp	wmd1.bmp	blankscreen.bmp	square.bmp
223	real_c	real_bottomright_diff_c	9	800	18	mask.bmp	blankscreen.bmp	wmn4.bmp	blankscreen.bmp	circle.bmp
223	real_c	real_bottomright_same_c	10	553	23	mask.bmp	blankscreen.bmp	wmn2.bmp	blankscreen.bmp	square.bmp
223	real_c	real_bottomleft_same_c	11	549	18	mask.bmp	blankscreen.bmp	wmn1.bmp	blankscreen.bmp	circle.bmp
223	real_c	real_topleft_same_c	12	521	18	mask.bmp	blankscreen.bmp	wfd1.bmp	blankscreen.bmp	circle.bmp
223	real_c	real_topright_same_c	13	557	18	mask.bmp	blankscreen.bmp	wfn2.bmp	blankscreen.bmp	circle.bmp
223	real_c	real_bottomleft_diff_c	14	769	18	mask.bmp	blankscreen.bmp	wmd5.bmp	blankscreen.bmp	circle.bmp
223	real_c	real_bottomright_diff_c	15	772	18	mask.bmp	blankscreen.bmp	wfd5.bmp	blankscreen.bmp	circle.bmp
223	real_c	real_topleft_diff_c	16	685	23	mask.bmp	blankscreen.bmp	wfn4.bmp	blankscreen.bmp	square.bmp
223	real_c	real_bottomleft_diff_c	17	652	23	mask.bmp	blankscreen.bmp	wfd4.bmp	blankscreen.bmp	square.bmp
223	real_c	real_topleft_diff_c	18	628	23	mask.bmp	blankscreen.bmp	wfd3.bmp	blankscreen.bmp	square.bmp
223	real_c	real_bottomleft_diff_c	19	532	18	mask.bmp	blankscreen.bmp	wfn3.bmp	blankscreen.bmp	circle.bmp
223	real_c	real_bottomleft_same_c	20	545	18	mask.bmp	blankscreen.bmp	wfd2.bmp	blankscreen.bmp	circle.bmp
223	real_d	real_topleft_same_d	1	487	18	mask.bmp	blankscreen.bmp	wmn6.bmp	blankscreen.bmp	circle.bmp
223	real_d	real_bottomright_same_d	2	429	23	mask.bmp	blankscreen.bmp	wfn7.bmp	blankscreen.bmp	square.bmp
223	real_d	real_bottomright_diff_d	3	526	18	mask.bmp	blankscreen.bmp	wfn9.bmp	blankscreen.bmp	circle.bmp
223	real_d	real_bottomleft_same_d	4	579	18	mask.bmp	blankscreen.bmp	wmn7.bmp	blankscreen.bmp	circle.bmp
223	real_d	real_topleft_diff_d	5	582	18	mask.bmp	blankscreen.bmp	wmn8.bmp	blankscreen.bmp	circle.bmp
223	real_d	real_bottomright_diff_d	6	600	18	mask.bmp	blankscreen.bmp	wfd8.bmp	blankscreen.bmp	circle.bmp
223	real_d	real_bottomleft_diff_d	7	642	23	mask.bmp	blankscreen.bmp	wfd10.bmp	blankscreen.bmp	square.bmp
223	real_d	real_topleft_same_d	8	554	23	mask.bmp	blankscreen.bmp	wmd6.bmp	blankscreen.bmp	square.bmp
223	real_d	real_bottomright_diff_d	9	629	23	mask.bmp	blankscreen.bmp	wmn10.bmp	blankscreen.bmp	square.bmp
223	real_d	real_topright_same_d	10	502	23	mask.bmp	blankscreen.bmp	wfd6.bmp	blankscreen.bmp	square.bmp
223	real_d	real_topright_diff_d	11	716	23	mask.bmp	blankscreen.bmp	wfn8.bmp	blankscreen.bmp	square.bmp
223	real_d	real_topright_diff_d	12	529	23	mask.bmp	blankscreen.bmp	wfd9.bmp	blankscreen.bmp	square.bmp
223	real_d	real_topleft_diff_d	13	510	23	mask.bmp	blankscreen.bmp	wfn10.bmp	blankscreen.bmp	square.bmp
223	real_d	real_bottomleft_diff_d	14	595	18	mask.bmp	blankscreen.bmp	wmd8.bmp	blankscreen.bmp	circle.bmp
223	real_d	real_topleft_diff_d	15	717	18	mask.bmp	blankscreen.bmp	wmd9.bmp	blankscreen.bmp	circle.bmp
223	real_d	real_bottomleft_diff_d	16	530	18	mask.bmp	blankscreen.bmp	wmn9.bmp	blankscreen.bmp	circle.bmp
223	real_d	real_topright_same_d	17	559	23	mask.bmp	blankscreen.bmp	wmd7.bmp	blankscreen.bmp	square.bmp
223	real_d	real_bottomright_same_d	18	731	23	mask.bmp	blankscreen.bmp	wfd7.bmp	blankscreen.bmp	square.bmp
223	real_d	real_bottomleft_same_d	19	511	18	mask.bmp	blankscreen.bmp	wfn6.bmp	blankscreen.bmp	circle.bmp
223	real_d	real_topright_diff_d	20	573	23	mask.bmp	blankscreen.bmp	wmd10.bmp	blankscreen.bmp	square.bmp
227	practice	practice_bottomleft_diff	1	1856	23	mask.bmp	blankscreen.bmp	practice11.jpg	blankscreen.bmp	square.bmp
227	practice	practice_topleft_same	2	547	18	mask.bmp	blankscreen.bmp	practice2.jpg	blankscreen.bmp	circle.bmp
227	practice	practice_topright_same	3	608	18	mask.bmp	blankscreen.bmp	practice3.jpg	blankscreen.bmp	circle.bmp
227	practice	practice_bottomleft_same	4	529	23	mask.bmp	blankscreen.bmp	practice5.jpg	blankscreen.bmp	square.bmp
227	practice	practice_topright_same	5	981	23	mask.bmp	blankscreen.bmp	practice4.jpg	blankscreen.bmp	square.bmp
227	practice	practice_topright_diff	6	583	23	mask.bmp	blankscreen.bmp	practice10.jpg	blankscreen.bmp	square.bmp
227	practice	practice_bottomright_diff	7	513	23	mask.bmp	blankscreen.bmp	practice12.jpg	blankscreen.bmp	square.bmp
227	practice	practice_topleft_diff	8	527	18	mask.bmp	blankscreen.bmp	practice9.jpg	blankscreen.bmp	circle.bmp
227	practice	practice_bottomright_same	9	764	18	mask.bmp	blankscreen.bmp	practice7.jpg	blankscreen.bmp	circle.bmp
227	practice	practice_bottomright_same	10	640	23	mask.bmp	blankscreen.bmp	practice8.jpg	blankscreen.bmp	square.bmp
227	practice	practice_bottomleft_same	11	655	23	mask.bmp	blankscreen.bmp	practice6.jpg	blankscreen.bmp	circle.bmp
227	practice	practice_topleft_same	12	886	18	mask.bmp	blankscreen.bmp	practice1.jpg	blankscreen.bmp	circle.bmp
227	real_a	real_topright_same_a	1	1058	23	mask.bmp	blankscreen.bmp	wfd5.bmp	blankscreen.bmp	square.bmp
227	real_a	real_bottomleft_diff_a	2	528	18	mask.bmp	blankscreen.bmp	wfd3.bmp	blankscreen.bmp	circle.bmp
227	real_a	real_bottomright_same_a	3	997	18	mask.bmp	blankscreen.bmp	wmn5.bmp	blankscreen.bmp	circle.bmp
227	real_a	real_bottomleft_same_a	4	494	23	mask.bmp	blankscreen.bmp	wmd4.bmp	blankscreen.bmp	square.bmp
227	real_a	real_topright_same_a	5	732	23	mask.bmp	blankscreen.bmp	wmn4.bmp	blankscreen.bmp	square.bmp
227	real_a	real_topleft_same_a	6	584	18	mask.bmp	blankscreen.bmp	wfd4.bmp	blankscreen.bmp	circle.bmp
227	real_a	real_bottomleft_diff_a	7	907	23	mask.bmp	blankscreen.bmp	wmn2.bmp	blankscreen.bmp	square.bmp
227	real_a	real_bottomright_diff_a	8	807	18	mask.bmp	blankscreen.bmp	wfn2.bmp	blankscreen.bmp	circle.bmp
227	real_a	real_bottomright_diff_a	9	688	23	mask.bmp	blankscreen.bmp	wmd1.bmp	blankscreen.bmp	square.bmp
227	real_a	real_bottomright_diff_a	10	709	23	mask.bmp	blankscreen.bmp	wmn3.bmp	blankscreen.bmp	square.bmp
227	real_a	real_bottomleft_diff_a	11	618	23	mask.bmp	blankscreen.bmp	wfn1.bmp	blankscreen.bmp	square.bmp
227	real_a	real_topright_diff_a	12	764	18	mask.bmp	blankscreen.bmp	wfd2.bmp	blankscreen.bmp	circle.bmp
227	real_a	real_bottomright_same_a	13	543	23	mask.bmp	blankscreen.bmp	wmd5.bmp	blankscreen.bmp	square.bmp
227	real_a	real_topleft_diff_a	14	891	23	mask.bmp	blankscreen.bmp	wmd2.bmp	blankscreen.bmp	square.bmp
227	real_a	real_topleft_diff_a	15	720	23	mask.bmp	blankscreen.bmp	wfd1.bmp	blankscreen.bmp	square.bmp
227	real_a	real_topright_diff_a	16	485	18	mask.bmp	blankscreen.bmp	wmd3.bmp	blankscreen.bmp	circle.bmp
227	real_a	real_topleft_diff_a	17	651	18	mask.bmp	blankscreen.bmp	wfn3.bmp	blankscreen.bmp	circle.bmp
227	real_a	real_topleft_same_a	18	507	18	mask.bmp	blankscreen.bmp	wfn4.bmp	blankscreen.bmp	circle.bmp
227	real_a	real_bottomleft_same_a	19	513	23	mask.bmp	blankscreen.bmp	wfn5.bmp	blankscreen.bmp	square.bmp
227	real_a	real_topright_diff_a	20	502	18	mask.bmp	blankscreen.bmp	wmn1.bmp	blankscreen.bmp	circle.bmp
227	real_b	real_topright_diff_b	1	527	18	mask.bmp	blankscreen.bmp	wfn6.bmp	blankscreen.bmp	circle.bmp
227	real_b	real_bottomright_same_b	2	604	23	mask.bmp	blankscreen.bmp	wfd10.bmp	blankscreen.bmp	square.bmp
227	real_b	real_topleft_diff_b	3	549	18	mask.bmp	blankscreen.bmp	wfd7.bmp	blankscreen.bmp	circle.bmp
227	real_b	real_bottomleft_diff_b	4	481	23	mask.bmp	blankscreen.bmp	wmn8.bmp	blankscreen.bmp	square.bmp
227	real_b	real_topright_same_b	5	520	18	mask.bmp	blankscreen.bmp	wmn10.bmp	blankscreen.bmp	circle.bmp
227	real_b	real_topleft_same_b	6	533	23	mask.bmp	blankscreen.bmp	wmd9.bmp	blankscreen.bmp	square.bmp
227	real_b	real_topright_same_b	7	786	23	mask.bmp	blankscreen.bmp	wfn9.bmp	blankscreen.bmp	square.bmp
227	real_b	real_topright_diff_b	8	644	23	mask.bmp	blankscreen.bmp	wmn7.bmp	blankscreen.bmp	square.bmp
227	real_b	real_bottomright_diff_b	9	468	18	mask.bmp	blankscreen.bmp	wmd7.bmp	blankscreen.bmp	circle.bmp
227	real_b	real_bottomright_diff_b	10	500	23	mask.bmp	blankscreen.bmp	wfn8.bmp	blankscreen.bmp	square.bmp
227	real_b	real_topleft_diff_b	11	570	23	mask.bmp	blankscreen.bmp	wmd8.bmp	blankscreen.bmp	square.bmp
227	real_b	real_topleft_same_b	12	445	18	mask.bmp	blankscreen.bmp	wmn9.bmp	blankscreen.bmp	circle.bmp
227	real_b	real_bottomright_same_b	13	574	18	mask.bmp	blankscreen.bmp	wfn10.bmp	blankscreen.bmp	circle.bmp
227	real_b	real_bottomright_diff_b	14	552	23	mask.bmp	blankscreen.bmp	wfd6.bmp	blankscreen.bmp	square.bmp
227	real_b	real_bottomleft_same_b	15	517	23	mask.bmp	blankscreen.bmp	wmd10.bmp	blankscreen.bmp	square.bmp
227	real_b	real_bottomleft_diff_b	16	554	18	mask.bmp	blankscreen.bmp	wmd6.bmp	blankscreen.bmp	circle.bmp
227	real_b	real_topleft_diff_b	17	597	23	mask.bmp	blankscreen.bmp	wmn6.bmp	blankscreen.bmp	square.bmp
227	real_b	real_bottomleft_diff_b	18	535	23	mask.bmp	blankscreen.bmp	wfn7.bmp	blankscreen.bmp	square.bmp
227	real_b	real_topright_diff_b	19	564	18	mask.bmp	blankscreen.bmp	wfd8.bmp	blankscreen.bmp	circle.bmp
227	real_b	real_bottomleft_same_b	20	503	23	mask.bmp	blankscreen.bmp	wfd9.bmp	blankscreen.bmp	square.bmp
227	real_c	real_topleft_diff_c	1	688	18	mask.bmp	blankscreen.bmp	wfd3.bmp	blankscreen.bmp	circle.bmp
227	real_c	real_topright_diff_c	2	558	18	mask.bmp	blankscreen.bmp	wmd4.bmp	blankscreen.bmp	circle.bmp
227	real_c	real_bottomleft_diff_c	3	721	23	mask.bmp	blankscreen.bmp	wmd5.bmp	blankscreen.bmp	square.bmp
227	real_c	real_topleft_diff_c	4	501	18	mask.bmp	blankscreen.bmp	wmn5.bmp	blankscreen.bmp	circle.bmp
227	real_c	real_topleft_diff_c	5	419	18	mask.bmp	blankscreen.bmp	wfn4.bmp	blankscreen.bmp	circle.bmp
227	real_c	real_bottomright_same_c	6	429	18	mask.bmp	blankscreen.bmp	wmd2.bmp	blankscreen.bmp	circle.bmp
227	real_c	real_bottomleft_diff_c	7	502	18	mask.bmp	blankscreen.bmp	wfn3.bmp	blankscreen.bmp	circle.bmp
227	real_c	real_topleft_same_c	8	357	23	mask.bmp	blankscreen.bmp	wfd1.bmp	blankscreen.bmp	square.bmp
227	real_c	real_bottomright_diff_c	9	489	23	mask.bmp	blankscreen.bmp	wmn4.bmp	blankscreen.bmp	square.bmp
227	real_c	real_topright_diff_c	10	663	18	mask.bmp	blankscreen.bmp	wfn5.bmp	blankscreen.bmp	circle.bmp
227	real_c	real_bottomleft_diff_c	11	550	18	mask.bmp	blankscreen.bmp	wfd4.bmp	blankscreen.bmp	circle.bmp
227	real_c	real_topright_same_c	12	770	18	mask.bmp	blankscreen.bmp	wfn2.bmp	blankscreen.bmp	circle.bmp
227	real_c	real_topright_same_c	13	613	23	mask.bmp	blankscreen.bmp	wmd1.bmp	blankscreen.bmp	square.bmp
227	real_c	real_bottomright_diff_c	14	622	23	mask.bmp	blankscreen.bmp	wfd5.bmp	blankscreen.bmp	square.bmp
227	real_c	real_bottomleft_same_c	15	591	23	mask.bmp	blankscreen.bmp	wfd2.bmp	blankscreen.bmp	square.bmp
227	real_c	real_bottomleft_same_c	16	545	23	mask.bmp	blankscreen.bmp	wmn1.bmp	blankscreen.bmp	square.bmp
227	real_c	real_bottomright_diff_c	17	501	18	mask.bmp	blankscreen.bmp	wmd3.bmp	blankscreen.bmp	circle.bmp
227	real_c	real_topleft_same_c	18	491	18	mask.bmp	blankscreen.bmp	wfn1.bmp	blankscreen.bmp	circle.bmp
227	real_c	real_bottomright_same_c	19	545	23	mask.bmp	blankscreen.bmp	wmn2.bmp	blankscreen.bmp	square.bmp
227	real_c	real_topright_diff_c	20	549	18	mask.bmp	blankscreen.bmp	wmn3.bmp	blankscreen.bmp	circle.bmp
227	real_d	real_bottomleft_diff_d	1	881	23	mask.bmp	blankscreen.bmp	wmn9.bmp	blankscreen.bmp	square.bmp
227	real_d	real_bottomleft_diff_d	2	687	23	mask.bmp	blankscreen.bmp	wfd10.bmp	blankscreen.bmp	square.bmp
227	real_d	real_bottomright_diff_d	3	452	23	mask.bmp	blankscreen.bmp	wfn9.bmp	blankscreen.bmp	square.bmp
227	real_d	real_bottomright_diff_d	4	582	18	mask.bmp	blankscreen.bmp	wmn10.bmp	blankscreen.bmp	circle.bmp
227	real_d	real_topright_same_d	5	423	23	mask.bmp	blankscreen.bmp	wmd7.bmp	blankscreen.bmp	square.bmp
227	real_d	real_topright_diff_d	6	504	18	mask.bmp	blankscreen.bmp	wfn8.bmp	blankscreen.bmp	circle.bmp
227	real_d	real_bottomleft_diff_d	7	638	23	mask.bmp	blankscreen.bmp	wmd8.bmp	blankscreen.bmp	square.bmp
227	real_d	real_topleft_diff_d	8	750	23	mask.bmp	blankscreen.bmp	wfn10.bmp	blankscreen.bmp	square.bmp
227	real_d	real_topleft_same_d	9	617	18	mask.bmp	blankscreen.bmp	wmn6.bmp	blankscreen.bmp	circle.bmp
227	real_d	real_topleft_diff_d	10	570	18	mask.bmp	blankscreen.bmp	wmd9.bmp	blankscreen.bmp	circle.bmp
227	real_d	real_bottomleft_same_d	11	557	23	mask.bmp	blankscreen.bmp	wmn7.bmp	blankscreen.bmp	square.bmp
227	real_d	real_topleft_diff_d	12	553	23	mask.bmp	blankscreen.bmp	wmn8.bmp	blankscreen.bmp	square.bmp
227	real_d	real_topleft_same_d	13	525	23	mask.bmp	blankscreen.bmp	wmd6.bmp	blankscreen.bmp	square.bmp
227	real_d	real_bottomright_same_d	14	521	18	mask.bmp	blankscreen.bmp	wfd7.bmp	blankscreen.bmp	circle.bmp
227	real_d	real_bottomright_same_d	15	542	18	mask.bmp	blankscreen.bmp	wfn7.bmp	blankscreen.bmp	circle.bmp
227	real_d	real_topright_same_d	16	514	18	mask.bmp	blankscreen.bmp	wfd6.bmp	blankscreen.bmp	circle.bmp
227	real_d	real_bottomleft_same_d	17	745	23	mask.bmp	blankscreen.bmp	wfn6.bmp	blankscreen.bmp	square.bmp
227	real_d	real_topright_diff_d	18	563	18	mask.bmp	blankscreen.bmp	wfd9.bmp	blankscreen.bmp	circle.bmp
227	real_d	real_topright_diff_d	19	647	18	mask.bmp	blankscreen.bmp	wmd10.bmp	blankscreen.bmp	circle.bmp
227	real_d	real_bottomright_diff_d	20	591	18	mask.bmp	blankscreen.bmp	wfd8.bmp	blankscreen.bmp	circle.bmp
231	practice	practice_bottomright_same	1	2729	23	mask.bmp	blankscreen.bmp	practice8.jpg	blankscreen.bmp	square.bmp
231	practice	practice_topright_same	2	1719	18	mask.bmp	blankscreen.bmp	practice4.jpg	blankscreen.bmp	square.bmp
231	practice	practice_bottomleft_same	3	1017	18	mask.bmp	blankscreen.bmp	practice6.jpg	blankscreen.bmp	circle.bmp
231	practice	practice_bottomleft_diff	4	1361	23	mask.bmp	blankscreen.bmp	practice11.jpg	blankscreen.bmp	square.bmp
231	practice	practice_bottomright_same	5	642	18	mask.bmp	blankscreen.bmp	practice7.jpg	blankscreen.bmp	square.bmp
231	practice	practice_topleft_same	6	2850	18	mask.bmp	blankscreen.bmp	practice1.jpg	blankscreen.bmp	circle.bmp
231	practice	practice_topright_same	7	1235	23	mask.bmp	blankscreen.bmp	practice3.jpg	blankscreen.bmp	square.bmp
231	practice	practice_topleft_diff	8	2194	18	mask.bmp	blankscreen.bmp	practice9.jpg	blankscreen.bmp	circle.bmp
231	practice	practice_bottomleft_same	9	855	23	mask.bmp	blankscreen.bmp	practice5.jpg	blankscreen.bmp	square.bmp
231	practice	practice_topright_diff	10	901	23	mask.bmp	blankscreen.bmp	practice10.jpg	blankscreen.bmp	circle.bmp
231	practice	practice_bottomright_diff	11	1018	23	mask.bmp	blankscreen.bmp	practice12.jpg	blankscreen.bmp	square.bmp
231	practice	practice_topleft_same	12	1690	23	mask.bmp	blankscreen.bmp	practice2.jpg	blankscreen.bmp	circle.bmp
231	real_a	real_topleft_same_a	1	903	23	mask.bmp	blankscreen.bmp	wfd4.bmp	blankscreen.bmp	square.bmp
231	real_a	real_topright_same_a	2	669	23	mask.bmp	blankscreen.bmp	wmn4.bmp	blankscreen.bmp	square.bmp
231	real_a	real_bottomleft_diff_a	3	619	18	mask.bmp	blankscreen.bmp	wmn2.bmp	blankscreen.bmp	circle.bmp
231	real_a	real_topleft_same_a	4	797	18	mask.bmp	blankscreen.bmp	wfn4.bmp	blankscreen.bmp	circle.bmp
231	real_a	real_bottomleft_diff_a	5	806	18	mask.bmp	blankscreen.bmp	wfn1.bmp	blankscreen.bmp	circle.bmp
231	real_a	real_topleft_diff_a	6	726	18	mask.bmp	blankscreen.bmp	wmd2.bmp	blankscreen.bmp	circle.bmp
231	real_a	real_bottomright_diff_a	7	675	23	mask.bmp	blankscreen.bmp	wmd1.bmp	blankscreen.bmp	square.bmp
231	real_a	real_topleft_diff_a	8	689	23	mask.bmp	blankscreen.bmp	wfd1.bmp	blankscreen.bmp	square.bmp
231	real_a	real_topright_diff_a	9	583	23	mask.bmp	blankscreen.bmp	wfd2.bmp	blankscreen.bmp	square.bmp
231	real_a	real_topright_same_a	10	537	23	mask.bmp	blankscreen.bmp	wfd5.bmp	blankscreen.bmp	square.bmp
231	real_a	real_bottomleft_same_a	11	765	18	mask.bmp	blankscreen.bmp	wfn5.bmp	blankscreen.bmp	circle.bmp
231	real_a	real_bottomleft_same_a	12	696	23	mask.bmp	blankscreen.bmp	wmd4.bmp	blankscreen.bmp	square.bmp
231	real_a	real_topright_diff_a	13	1022	18	mask.bmp	blankscreen.bmp	wmn1.bmp	blankscreen.bmp	circle.bmp
231	real_a	real_topright_diff_a	14	925	18	mask.bmp	blankscreen.bmp	wmd3.bmp	blankscreen.bmp	circle.bmp
231	real_a	real_bottomright_same_a	15	865	18	mask.bmp	blankscreen.bmp	wmn5.bmp	blankscreen.bmp	circle.bmp
231	real_a	real_bottomleft_diff_a	16	991	23	mask.bmp	blankscreen.bmp	wfd3.bmp	blankscreen.bmp	square.bmp
231	real_a	real_bottomright_same_a	17	776	18	mask.bmp	blankscreen.bmp	wmd5.bmp	blankscreen.bmp	circle.bmp
231	real_a	real_bottomright_diff_a	18	754	18	mask.bmp	blankscreen.bmp	wfn2.bmp	blankscreen.bmp	circle.bmp
231	real_a	real_bottomright_diff_a	19	1030	23	mask.bmp	blankscreen.bmp	wmn3.bmp	blankscreen.bmp	square.bmp
231	real_a	real_topleft_diff_a	20	597	18	mask.bmp	blankscreen.bmp	wfn3.bmp	blankscreen.bmp	circle.bmp
231	real_b	real_topright_diff_b	1	1242	18	mask.bmp	blankscreen.bmp	wmn7.bmp	blankscreen.bmp	circle.bmp
231	real_b	real_topright_same_b	2	632	18	mask.bmp	blankscreen.bmp	wmn10.bmp	blankscreen.bmp	circle.bmp
231	real_b	real_bottomleft_diff_b	3	600	18	mask.bmp	blankscreen.bmp	wfn7.bmp	blankscreen.bmp	circle.bmp
231	real_b	real_bottomright_diff_b	4	642	18	mask.bmp	blankscreen.bmp	wmd7.bmp	blankscreen.bmp	circle.bmp
231	real_b	real_topright_diff_b	5	610	18	mask.bmp	blankscreen.bmp	wfn6.bmp	blankscreen.bmp	circle.bmp
231	real_b	real_bottomright_same_b	6	547	23	mask.bmp	blankscreen.bmp	wfd10.bmp	blankscreen.bmp	square.bmp
231	real_b	real_bottomright_diff_b	7	688	18	mask.bmp	blankscreen.bmp	wfd6.bmp	blankscreen.bmp	circle.bmp
231	real_b	real_bottomleft_same_b	8	581	18	mask.bmp	blankscreen.bmp	wmd10.bmp	blankscreen.bmp	circle.bmp
231	real_b	real_bottomright_diff_b	9	576	18	mask.bmp	blankscreen.bmp	wfn8.bmp	blankscreen.bmp	circle.bmp
231	real_b	real_topright_diff_b	10	538	18	mask.bmp	blankscreen.bmp	wfd8.bmp	blankscreen.bmp	circle.bmp
231	real_b	real_bottomleft_diff_b	11	631	23	mask.bmp	blankscreen.bmp	wmn8.bmp	blankscreen.bmp	square.bmp
231	real_b	real_topleft_same_b	12	759	18	mask.bmp	blankscreen.bmp	wmd9.bmp	blankscreen.bmp	circle.bmp
231	real_b	real_topleft_diff_b	13	802	18	mask.bmp	blankscreen.bmp	wfd7.bmp	blankscreen.bmp	circle.bmp
231	real_b	real_topleft_diff_b	14	531	18	mask.bmp	blankscreen.bmp	wmn6.bmp	blankscreen.bmp	circle.bmp
231	real_b	real_topright_same_b	15	944	18	mask.bmp	blankscreen.bmp	wfn9.bmp	blankscreen.bmp	square.bmp
231	real_b	real_bottomleft_same_b	16	611	18	mask.bmp	blankscreen.bmp	wfd9.bmp	blankscreen.bmp	circle.bmp
231	real_b	real_bottomleft_diff_b	17	500	23	mask.bmp	blankscreen.bmp	wmd6.bmp	blankscreen.bmp	square.bmp
231	real_b	real_topleft_diff_b	18	482	23	mask.bmp	blankscreen.bmp	wmd8.bmp	blankscreen.bmp	square.bmp
231	real_b	real_bottomright_same_b	19	610	23	mask.bmp	blankscreen.bmp	wfn10.bmp	blankscreen.bmp	square.bmp
231	real_b	real_topleft_same_b	20	723	23	mask.bmp	blankscreen.bmp	wmn9.bmp	blankscreen.bmp	square.bmp
231	real_c	real_bottomleft_diff_c	1	669	23	mask.bmp	blankscreen.bmp	wmd5.bmp	blankscreen.bmp	square.bmp
231	real_c	real_bottomleft_same_c	2	820	18	mask.bmp	blankscreen.bmp	wfd2.bmp	blankscreen.bmp	circle.bmp
231	real_c	real_topright_diff_c	3	573	23	mask.bmp	blankscreen.bmp	wfn5.bmp	blankscreen.bmp	square.bmp
231	real_c	real_bottomright_same_c	4	655	23	mask.bmp	blankscreen.bmp	wmd2.bmp	blankscreen.bmp	square.bmp
231	real_c	real_topleft_same_c	5	582	18	mask.bmp	blankscreen.bmp	wfd1.bmp	blankscreen.bmp	circle.bmp
231	real_c	real_topleft_diff_c	6	729	18	mask.bmp	blankscreen.bmp	wfd3.bmp	blankscreen.bmp	circle.bmp
231	real_c	real_topright_diff_c	7	549	23	mask.bmp	blankscreen.bmp	wmd4.bmp	blankscreen.bmp	square.bmp
231	real_c	real_bottomright_same_c	8	617	23	mask.bmp	blankscreen.bmp	wmn2.bmp	blankscreen.bmp	square.bmp
231	real_c	real_topright_same_c	9	682	23	mask.bmp	blankscreen.bmp	wfn2.bmp	blankscreen.bmp	square.bmp
231	real_c	real_topleft_diff_c	10	697	18	mask.bmp	blankscreen.bmp	wfn4.bmp	blankscreen.bmp	circle.bmp
231	real_c	real_bottomright_diff_c	11	838	18	mask.bmp	blankscreen.bmp	wmd3.bmp	blankscreen.bmp	circle.bmp
231	real_c	real_topleft_same_c	12	1270	18	mask.bmp	blankscreen.bmp	wfn1.bmp	blankscreen.bmp	circle.bmp
231	real_c	real_bottomright_diff_c	13	923	23	mask.bmp	blankscreen.bmp	wfd5.bmp	blankscreen.bmp	square.bmp
231	real_c	real_bottomleft_diff_c	14	622	23	mask.bmp	blankscreen.bmp	wfn3.bmp	blankscreen.bmp	square.bmp
231	real_c	real_bottomleft_diff_c	15	831	18	mask.bmp	blankscreen.bmp	wfd4.bmp	blankscreen.bmp	circle.bmp
231	real_c	real_topright_same_c	16	735	23	mask.bmp	blankscreen.bmp	wmd1.bmp	blankscreen.bmp	square.bmp
231	real_c	real_bottomleft_same_c	17	715	23	mask.bmp	blankscreen.bmp	wmn1.bmp	blankscreen.bmp	square.bmp
231	real_c	real_topleft_diff_c	18	576	23	mask.bmp	blankscreen.bmp	wmn5.bmp	blankscreen.bmp	square.bmp
231	real_c	real_bottomright_diff_c	19	1035	18	mask.bmp	blankscreen.bmp	wmn4.bmp	blankscreen.bmp	circle.bmp
231	real_c	real_topright_diff_c	20	1346	18	mask.bmp	blankscreen.bmp	wmn3.bmp	blankscreen.bmp	circle.bmp
231	real_d	real_bottomleft_diff_d	1	1218	23	mask.bmp	blankscreen.bmp	wmd8.bmp	blankscreen.bmp	square.bmp
231	real_d	real_topright_diff_d	2	514	23	mask.bmp	blankscreen.bmp	wmd10.bmp	blankscreen.bmp	square.bmp
231	real_d	real_bottomright_same_d	3	1311	18	mask.bmp	blankscreen.bmp	wfn7.bmp	blankscreen.bmp	circle.bmp
231	real_d	real_bottomright_diff_d	4	746	23	mask.bmp	blankscreen.bmp	wmn10.bmp	blankscreen.bmp	square.bmp
231	real_d	real_bottomright_same_d	5	958	18	mask.bmp	blankscreen.bmp	wfd7.bmp	blankscreen.bmp	circle.bmp
231	real_d	real_topright_diff_d	6	744	23	mask.bmp	blankscreen.bmp	wfd9.bmp	blankscreen.bmp	square.bmp
231	real_d	real_bottomleft_diff_d	7	579	18	mask.bmp	blankscreen.bmp	wfd10.bmp	blankscreen.bmp	circle.bmp
231	real_d	real_bottomright_diff_d	8	558	18	mask.bmp	blankscreen.bmp	wfd8.bmp	blankscreen.bmp	square.bmp
231	real_d	real_bottomleft_same_d	9	849	18	mask.bmp	blankscreen.bmp	wmn7.bmp	blankscreen.bmp	circle.bmp
231	real_d	real_topleft_diff_d	10	1233	18	mask.bmp	blankscreen.bmp	wfn10.bmp	blankscreen.bmp	circle.bmp
231	real_d	real_topleft_same_d	11	719	23	mask.bmp	blankscreen.bmp	wmn6.bmp	blankscreen.bmp	square.bmp
231	real_d	real_topright_same_d	12	916	23	mask.bmp	blankscreen.bmp	wfd6.bmp	blankscreen.bmp	square.bmp
231	real_d	real_topleft_same_d	13	536	23	mask.bmp	blankscreen.bmp	wmd6.bmp	blankscreen.bmp	square.bmp
231	real_d	real_topleft_diff_d	14	741	18	mask.bmp	blankscreen.bmp	wmn8.bmp	blankscreen.bmp	circle.bmp
231	real_d	real_topleft_diff_d	15	801	18	mask.bmp	blankscreen.bmp	wmd9.bmp	blankscreen.bmp	circle.bmp
231	real_d	real_topright_same_d	16	746	18	mask.bmp	blankscreen.bmp	wmd7.bmp	blankscreen.bmp	circle.bmp
231	real_d	real_bottomright_diff_d	17	734	23	mask.bmp	blankscreen.bmp	wfn9.bmp	blankscreen.bmp	square.bmp
231	real_d	real_topright_diff_d	18	1154	23	mask.bmp	blankscreen.bmp	wfn8.bmp	blankscreen.bmp	square.bmp
231	real_d	real_bottomleft_same_d	19	756	18	mask.bmp	blankscreen.bmp	wfn6.bmp	blankscreen.bmp	circle.bmp
231	real_d	real_bottomleft_diff_d	20	743	23	mask.bmp	blankscreen.bmp	wmn9.bmp	blankscreen.bmp	square.bmp
234	practice	practice_bottomright_same	1	548	18	mask.bmp	blankscreen.bmp	practice7.jpg	blankscreen.bmp	circle.bmp
234	practice	practice_topleft_same	2	583	18	mask.bmp	blankscreen.bmp	practice1.jpg	blankscreen.bmp	circle.bmp
234	practice	practice_bottomright_same	3	346	23	mask.bmp	blankscreen.bmp	practice8.jpg	blankscreen.bmp	square.bmp
234	practice	practice_bottomleft_diff	4	511	23	mask.bmp	blankscreen.bmp	practice11.jpg	blankscreen.bmp	square.bmp
234	practice	practice_topright_same	5	436	23	mask.bmp	blankscreen.bmp	practice4.jpg	blankscreen.bmp	circle.bmp
234	practice	practice_topright_same	6	365	23	mask.bmp	blankscreen.bmp	practice3.jpg	blankscreen.bmp	square.bmp
234	practice	practice_bottomright_diff	7	481	23	mask.bmp	blankscreen.bmp	practice12.jpg	blankscreen.bmp	square.bmp
234	practice	practice_topright_diff	8	480	18	mask.bmp	blankscreen.bmp	practice10.jpg	blankscreen.bmp	circle.bmp
234	practice	practice_bottomleft_same	9	519	18	mask.bmp	blankscreen.bmp	practice6.jpg	blankscreen.bmp	circle.bmp
234	practice	practice_topleft_diff	10	372	23	mask.bmp	blankscreen.bmp	practice9.jpg	blankscreen.bmp	square.bmp
234	practice	practice_bottomleft_same	11	384	18	mask.bmp	blankscreen.bmp	practice5.jpg	blankscreen.bmp	circle.bmp
234	practice	practice_topleft_same	12	355	18	mask.bmp	blankscreen.bmp	practice2.jpg	blankscreen.bmp	circle.bmp
234	real_a	real_bottomright_diff_a	1	575	23	mask.bmp	blankscreen.bmp	wfn2.bmp	blankscreen.bmp	square.bmp
234	real_a	real_bottomleft_diff_a	2	505	18	mask.bmp	blankscreen.bmp	wfn1.bmp	blankscreen.bmp	circle.bmp
234	real_a	real_topright_diff_a	3	566	23	mask.bmp	blankscreen.bmp	wfd2.bmp	blankscreen.bmp	square.bmp
234	real_a	real_topleft_same_a	4	529	18	mask.bmp	blankscreen.bmp	wfd4.bmp	blankscreen.bmp	square.bmp
234	real_a	real_bottomleft_diff_a	5	558	23	mask.bmp	blankscreen.bmp	wmn2.bmp	blankscreen.bmp	square.bmp
234	real_a	real_topright_diff_a	6	650	23	mask.bmp	blankscreen.bmp	wmd3.bmp	blankscreen.bmp	square.bmp
234	real_a	real_topleft_diff_a	7	434	18	mask.bmp	blankscreen.bmp	wfn3.bmp	blankscreen.bmp	circle.bmp
234	real_a	real_topright_same_a	8	555	18	mask.bmp	blankscreen.bmp	wmn4.bmp	blankscreen.bmp	circle.bmp
234	real_a	real_bottomright_diff_a	9	438	23	mask.bmp	blankscreen.bmp	wmn3.bmp	blankscreen.bmp	square.bmp
234	real_a	real_topright_diff_a	10	471	18	mask.bmp	blankscreen.bmp	wmn1.bmp	blankscreen.bmp	circle.bmp
