subject	blockcode	trialcode	trialnum	latency	response	stimulusitem1	stimulusitem2	stimulusitem3	stimulusitem4	stimulusitem5
203	practice	practice_bottomright_diff	1	778	18	mask.bmp	blankscreen.bmp	practice12.jpg	blankscreen.bmp	circle.bmp
203	practice	practice_bottomleft_same	2	1052	23	mask.bmp	blankscreen.bmp	practice5.jpg	blankscreen.bmp	square.bmp
203	practice	practice_topleft_same	3	851	23	mask.bmp	blankscreen.bmp	practice1.jpg	blankscreen.bmp	square.bmp
203	practice	practice_topleft_same	4	666	18	mask.bmp	blankscreen.bmp	practice2.jpg	blankscreen.bmp	circle.bmp
203	practice	practice_topright_same	5	1097	23	mask.bmp	blankscreen.bmp	practice4.jpg	blankscreen.bmp	square.bmp
203	practice	practice_bottomleft_same	6	982	18	mask.bmp	blankscreen.bmp	practice6.jpg	blankscreen.bmp	circle.bmp
203	practice	practice_bottomright_same	7	1031	18	mask.bmp	blankscreen.bmp	practice7.jpg	blankscreen.bmp	circle.bmp
203	practice	practice_topleft_diff	8	1030	18	mask.bmp	blankscreen.bmp	practice9.jpg	blankscreen.bmp	circle.bmp
203	practice	practice_topright_diff	9	694	18	mask.bmp	blankscreen.bmp	practice10.jpg	blankscreen.bmp	square.bmp
203	practice	practice_bottomleft_diff	10	971	18	mask.bmp	blankscreen.bmp	practice11.jpg	blankscreen.bmp	circle.bmp
203	practice	practice_bottomright_same	11	1149	23	mask.bmp	blankscreen.bmp	practice8.jpg	blankscreen.bmp	square.bmp
203	practice	practice_topright_same	12	879	23	mask.bmp	blankscreen.bmp	practice3.jpg	blankscreen.bmp	square.bmp
203	real_a	real_topleft_diff_a	1	997	23	mask.bmp	blankscreen.bmp	wfn3.bmp	blankscreen.bmp	circle.bmp
203	real_a	real_topright_diff_a	2	901	18	mask.bmp	blankscreen.bmp	wmd3.bmp	blankscreen.bmp	circle.bmp
203	real_a	real_topleft_same_a	3	923	23	mask.bmp	blankscreen.bmp	wfd4.bmp	blankscreen.bmp	square.bmp
203	real_a	real_bottomleft_same_a	4	902	18	mask.bmp	blankscreen.bmp	wfn5.bmp	blankscreen.bmp	circle.bmp
203	real_a	real_bottomleft_diff_a	5	1547	23	mask.bmp	blankscreen.bmp	wmn2.bmp	blankscreen.bmp	square.bmp
203	real_a	real_topleft_same_a	6	1148	23	mask.bmp	blankscreen.bmp	wfn4.bmp	blankscreen.bmp	circle.bmp
203	real_a	real_bottomleft_diff_a	7	1031	18	mask.bmp	blankscreen.bmp	wfd3.bmp	blankscreen.bmp	circle.bmp
203	real_a	real_bottomright_diff_a	8	1110	18	mask.bmp	blankscreen.bmp	wmn3.bmp	blankscreen.bmp	circle.bmp
203	real_a	real_bottomright_same_a	9	714	18	mask.bmp	blankscreen.bmp	wmd5.bmp	blankscreen.bmp	circle.bmp
203	real_a	real_bottomleft_same_a	10	935	18	mask.bmp	blankscreen.bmp	wmd4.bmp	blankscreen.bmp	circle.bmp
203	real_a	real_topright_same_a	11	746	23	mask.bmp	blankscreen.bmp	wfd5.bmp	blankscreen.bmp	square.bmp
203	real_a	real_topright_diff_a	12	1270	23	mask.bmp	blankscreen.bmp	wfd2.bmp	blankscreen.bmp	square.bmp
203	real_a	real_topleft_diff_a	13	1091	23	mask.bmp	blankscreen.bmp	wfd1.bmp	blankscreen.bmp	square.bmp
203	real_a	real_bottomright_diff_a	14	967	18	mask.bmp	blankscreen.bmp	wmd1.bmp	blankscreen.bmp	circle.bmp
203	real_a	real_bottomright_same_a	15	874	18	mask.bmp	blankscreen.bmp	wmn5.bmp	blankscreen.bmp	circle.bmp
203	real_a	real_bottomright_diff_a	16	775	18	mask.bmp	blankscreen.bmp	wfn2.bmp	blankscreen.bmp	circle.bmp
203	real_a	real_topright_same_a	17	1201	18	mask.bmp	blankscreen.bmp	wmn4.bmp	blankscreen.bmp	circle.bmp
203	real_a	real_bottomleft_diff_a	18	730	23	mask.bmp	blankscreen.bmp	wfn1.bmp	blankscreen.bmp	square.bmp
203	real_a	real_topleft_diff_a	19	1550	23	mask.bmp	blankscreen.bmp	wmd2.bmp	blankscreen.bmp	square.bmp
203	real_a	real_topright_diff_a	20	952	18	mask.bmp	blankscreen.bmp	wmn1.bmp	blankscreen.bmp	circle.bmp
203	real_b	real_bottomleft_same_b	1	882	23	mask.bmp	blankscreen.bmp	wfd9.bmp	blankscreen.bmp	square.bmp
203	real_b	real_bottomleft_diff_b	2	696	23	mask.bmp	blankscreen.bmp	wmn8.bmp	blankscreen.bmp	square.bmp
203	real_b	real_bottomleft_same_b	3	774	23	mask.bmp	blankscreen.bmp	wmd10.bmp	blankscreen.bmp	square.bmp
203	real_b	real_topleft_diff_b	4	576	18	mask.bmp	blankscreen.bmp	wmd8.bmp	blankscreen.bmp	circle.bmp
203	real_b	real_topright_diff_b	5	1002	18	mask.bmp	blankscreen.bmp	wfn6.bmp	blankscreen.bmp	circle.bmp
203	real_b	real_topright_diff_b	6	1516	18	mask.bmp	blankscreen.bmp	wmn7.bmp	blankscreen.bmp	circle.bmp
203	real_b	real_bottomright_diff_b	7	926	18	mask.bmp	blankscreen.bmp	wmd7.bmp	blankscreen.bmp	circle.bmp
203	real_b	real_topright_diff_b	8	649	23	mask.bmp	blankscreen.bmp	wfd8.bmp	blankscreen.bmp	square.bmp
203	real_b	real_bottomleft_diff_b	9	777	23	mask.bmp	blankscreen.bmp	wmd6.bmp	blankscreen.bmp	square.bmp
203	real_b	real_bottomright_same_b	10	835	23	mask.bmp	blankscreen.bmp	wfn10.bmp	blankscreen.bmp	square.bmp
203	real_b	real_bottomleft_diff_b	11	915	23	mask.bmp	blankscreen.bmp	wfn7.bmp	blankscreen.bmp	square.bmp
203	real_b	real_topleft_same_b	12	711	23	mask.bmp	blankscreen.bmp	wmd9.bmp	blankscreen.bmp	square.bmp
203	real_b	real_bottomright_diff_b	13	628	23	mask.bmp	blankscreen.bmp	wfd6.bmp	blankscreen.bmp	square.bmp
203	real_b	real_topleft_diff_b	14	901	18	mask.bmp	blankscreen.bmp	wmn6.bmp	blankscreen.bmp	circle.bmp
203	real_b	real_topleft_same_b	15	754	18	mask.bmp	blankscreen.bmp	wmn9.bmp	blankscreen.bmp	circle.bmp
203	real_b	real_bottomright_diff_b	16	654	23	mask.bmp	blankscreen.bmp	wfn8.bmp	blankscreen.bmp	square.bmp
203	real_b	real_topleft_diff_b	17	941	23	mask.bmp	blankscreen.bmp	wfd7.bmp	blankscreen.bmp	square.bmp
203	real_b	real_topright_same_b	18	799	18	mask.bmp	blankscreen.bmp	wmn10.bmp	blankscreen.bmp	circle.bmp
203	real_b	real_bottomright_same_b	19	776	23	mask.bmp	blankscreen.bmp	wfd10.bmp	blankscreen.bmp	square.bmp
203	real_b	real_topright_same_b	20	811	23	mask.bmp	blankscreen.bmp	wfn9.bmp	blankscreen.bmp	square.bmp
203	real_c	real_topright_diff_c	1	1056	18	mask.bmp	blankscreen.bmp	wfn5.bmp	blankscreen.bmp	circle.bmp
203	real_c	real_topright_same_c	2	542	18	mask.bmp	blankscreen.bmp	wmd1.bmp	blankscreen.bmp	circle.bmp
203	real_c	real_bottomleft_same_c	3	1042	18	mask.bmp	blankscreen.bmp	wmn1.bmp	blankscreen.bmp	circle.bmp
203	real_c	real_bottomright_diff_c	4	592	23	mask.bmp	blankscreen.bmp	wmn4.bmp	blankscreen.bmp	square.bmp
203	real_c	real_topright_diff_c	5	723	18	mask.bmp	blankscreen.bmp	wmn3.bmp	blankscreen.bmp	circle.bmp
203	real_c	real_bottomright_diff_c	6	511	23	mask.bmp	blankscreen.bmp	wmd3.bmp	blankscreen.bmp	square.bmp
203	real_c	real_bottomleft_same_c	7	1668	23	mask.bmp	blankscreen.bmp	wfd2.bmp	blankscreen.bmp	square.bmp
203	real_c	real_bottomright_same_c	8	720	18	mask.bmp	blankscreen.bmp	wmn2.bmp	blankscreen.bmp	circle.bmp
203	real_c	real_bottomright_diff_c	9	981	18	mask.bmp	blankscreen.bmp	wfd5.bmp	blankscreen.bmp	circle.bmp
203	real_c	real_topright_diff_c	10	1343	23	mask.bmp	blankscreen.bmp	wmd4.bmp	blankscreen.bmp	square.bmp
203	real_c	real_topleft_same_c	11	728	23	mask.bmp	blankscreen.bmp	wfd1.bmp	blankscreen.bmp	square.bmp
203	real_c	real_topleft_diff_c	12	1102	23	mask.bmp	blankscreen.bmp	wfd3.bmp	blankscreen.bmp	square.bmp
203	real_c	real_topleft_same_c	13	609	23	mask.bmp	blankscreen.bmp	wfn1.bmp	blankscreen.bmp	square.bmp
203	real_c	real_bottomleft_diff_c	14	626	23	mask.bmp	blankscreen.bmp	wmd5.bmp	blankscreen.bmp	square.bmp
203	real_c	real_bottomleft_diff_c	15	619	23	mask.bmp	blankscreen.bmp	wfn3.bmp	blankscreen.bmp	square.bmp
203	real_c	real_topright_same_c	16	748	18	mask.bmp	blankscreen.bmp	wfn2.bmp	blankscreen.bmp	circle.bmp
203	real_c	real_bottomright_same_c	17	800	23	mask.bmp	blankscreen.bmp	wmd2.bmp	blankscreen.bmp	square.bmp
203	real_c	real_topleft_diff_c	18	673	23	mask.bmp	blankscreen.bmp	wmn5.bmp	blankscreen.bmp	square.bmp
203	real_c	real_topleft_diff_c	19	791	18	mask.bmp	blankscreen.bmp	wfn4.bmp	blankscreen.bmp	circle.bmp
203	real_c	real_bottomleft_diff_c	20	921	18	mask.bmp	blankscreen.bmp	wfd4.bmp	blankscreen.bmp	circle.bmp
203	real_d	real_topleft_same_d	1	1119	23	mask.bmp	blankscreen.bmp	wmn6.bmp	blankscreen.bmp	square.bmp
203	real_d	real_topright_same_d	2	786	18	mask.bmp	blankscreen.bmp	wfd6.bmp	blankscreen.bmp	circle.bmp
203	real_d	real_bottomright_diff_d	3	1180	18	mask.bmp	blankscreen.bmp	wfn9.bmp	blankscreen.bmp	circle.bmp
203	real_d	real_topright_diff_d	4	517	23	mask.bmp	blankscreen.bmp	wfd9.bmp	blankscreen.bmp	square.bmp
203	real_d	real_topleft_same_d	5	595	18	mask.bmp	blankscreen.bmp	wmd6.bmp	blankscreen.bmp	circle.bmp
203	real_d	real_topleft_diff_d	6	957	23	mask.bmp	blankscreen.bmp	wfn10.bmp	blankscreen.bmp	square.bmp
203	real_d	real_topleft_diff_d	7	903	23	mask.bmp	blankscreen.bmp	wmn8.bmp	blankscreen.bmp	square.bmp
203	real_d	real_bottomleft_diff_d	8	677	23	mask.bmp	blankscreen.bmp	wfd10.bmp	blankscreen.bmp	square.bmp
203	real_d	real_topright_same_d	9	714	18	mask.bmp	blankscreen.bmp	wmd7.bmp	blankscreen.bmp	circle.bmp
203	real_d	real_bottomleft_diff_d	10	983	18	mask.bmp	blankscreen.bmp	wmd8.bmp	blankscreen.bmp	circle.bmp
203	real_d	real_topright_diff_d	11	1113	18	mask.bmp	blankscreen.bmp	wfn8.bmp	blankscreen.bmp	circle.bmp
203	real_d	real_bottomleft_same_d	12	693	23	mask.bmp	blankscreen.bmp	wfn6.bmp	blankscreen.bmp	square.bmp
203	real_d	real_bottomleft_same_d	13	1042	23	mask.bmp	blankscreen.bmp	wmn7.bmp	blankscreen.bmp	square.bmp
203	real_d	real_topright_diff_d	14	761	18	mask.bmp	blankscreen.bmp	wmd10.bmp	blankscreen.bmp	circle.bmp
203	real_d	real_bottomleft_diff_d	15	523	23	mask.bmp	blankscreen.bmp	wmn9.bmp	blankscreen.bmp	square.bmp
203	real_d	real_bottomright_diff_d	16	912	18	mask.bmp	blankscreen.bmp	wfd8.bmp	blankscreen.bmp	circle.bmp
203	real_d	real_bottomright_same_d	17	845	18	mask.bmp	blankscreen.bmp	wfd7.bmp	blankscreen.bmp	circle.bmp
203	real_d	real_bottomright_same_d	18	780	18	mask.bmp	blankscreen.bmp	wfn7.bmp	blankscreen.bmp	circle.bmp
203	real_d	real_topleft_diff_d	19	942	18	mask.bmp	blankscreen.bmp	wmd9.bmp	blankscreen.bmp	circle.bmp
203	real_d	real_bottomright_diff_d	20	489	23	mask.bmp	blankscreen.bmp	wmn10.bmp	blankscreen.bmp	square.bmp
209	practice	practice_bottomright_same	1	1550	23	mask.bmp	blankscreen.bmp	practice7.jpg	blankscreen.bmp	square.bmp
209	practice	practice_topleft_same	2	342	18	mask.bmp	blankscreen.bmp	practice1.jpg	blankscreen.bmp	circle.bmp
209	practice	practice_topright_diff	3	419	23	mask.bmp	blankscreen.bmp	practice10.jpg	blankscreen.bmp	circle.bmp
209	practice	practice_topleft_same	4	638	18	mask.bmp	blankscreen.bmp	practice2.jpg	blankscreen.bmp	circle.bmp
209	practice	practice_topright_same	5	740	23	mask.bmp	blankscreen.bmp	practice3.jpg	blankscreen.bmp	square.bmp
209	practice	practice_bottomright_diff	6	816	18	mask.bmp	blankscreen.bmp	practice12.jpg	blankscreen.bmp	circle.bmp
209	practice	practice_bottomright_same	7	752	18	mask.bmp	blankscreen.bmp	practice8.jpg	blankscreen.bmp	circle.bmp
209	practice	practice_bottomleft_diff	8	812	18	mask.bmp	blankscreen.bmp	practice11.jpg	blankscreen.bmp	circle.bmp
209	practice	practice_topleft_diff	9	765	23	mask.bmp	blankscreen.bmp	practice9.jpg	blankscreen.bmp	square.bmp
209	practice	practice_topright_same	10	448	23	mask.bmp	blankscreen.bmp	practice4.jpg	blankscreen.bmp	square.bmp
209	practice	practice_bottomleft_same	11	528	18	mask.bmp	blankscreen.bmp	practice6.jpg	blankscreen.bmp	circle.bmp
209	practice	practice_bottomleft_same	12	469	18	mask.bmp	blankscreen.bmp	practice5.jpg	blankscreen.bmp	circle.bmp
209	real_a	real_topright_same_a	1	944	23	mask.bmp	blankscreen.bmp	wmn4.bmp	blankscreen.bmp	square.bmp
209	real_a	real_topleft_diff_a	2	123	18	mask.bmp	blankscreen.bmp	wfn3.bmp	blankscreen.bmp	square.bmp
209	real_a	real_topleft_diff_a	3	745	23	mask.bmp	blankscreen.bmp	wfd1.bmp	blankscreen.bmp	square.bmp
209	real_a	real_bottomleft_same_a	4	948	18	mask.bmp	blankscreen.bmp	wmd4.bmp	blankscreen.bmp	circle.bmp
209	real_a	real_topright_diff_a	5	799	23	mask.bmp	blankscreen.bmp	wmn1.bmp	blankscreen.bmp	circle.bmp
209	real_a	real_topleft_same_a	6	793	18	mask.bmp	blankscreen.bmp	wfn4.bmp	blankscreen.bmp	circle.bmp
209	real_a	real_topright_diff_a	7	866	18	mask.bmp	blankscreen.bmp	wmd3.bmp	blankscreen.bmp	circle.bmp
209	real_a	real_bottomleft_diff_a	8	1064	18	mask.bmp	blankscreen.bmp	wfd3.bmp	blankscreen.bmp	circle.bmp
209	real_a	real_bottomright_same_a	9	846	23	mask.bmp	blankscreen.bmp	wmn5.bmp	blankscreen.bmp	square.bmp
209	real_a	real_bottomright_same_a	10	965	23	mask.bmp	blankscreen.bmp	wmd5.bmp	blankscreen.bmp	square.bmp
209	real_a	real_bottomright_diff_a	11	896	18	mask.bmp	blankscreen.bmp	wfn2.bmp	blankscreen.bmp	circle.bmp
209	real_a	real_bottomleft_diff_a	12	782	18	mask.bmp	blankscreen.bmp	wfn1.bmp	blankscreen.bmp	circle.bmp
209	real_a	real_topright_same_a	13	895	23	mask.bmp	blankscreen.bmp	wfd5.bmp	blankscreen.bmp	square.bmp
209	real_a	real_bottomleft_diff_a	14	964	18	mask.bmp	blankscreen.bmp	wmn2.bmp	blankscreen.bmp	circle.bmp
209	real_a	real_topleft_diff_a	15	862	23	mask.bmp	blankscreen.bmp	wmd2.bmp	blankscreen.bmp	square.bmp
209	real_a	real_bottomleft_same_a	16	957	23	mask.bmp	blankscreen.bmp	wfn5.bmp	blankscreen.bmp	square.bmp
209	real_a	real_topleft_same_a	17	815	23	mask.bmp	blankscreen.bmp	wfd4.bmp	blankscreen.bmp	square.bmp
209	real_a	real_bottomright_diff_a	18	1007	18	mask.bmp	blankscreen.bmp	wmn3.bmp	blankscreen.bmp	circle.bmp
209	real_a	real_topright_diff_a	19	951	23	mask.bmp	blankscreen.bmp	wfd2.bmp	blankscreen.bmp	square.bmp
209	real_a	real_bottomright_diff_a	20	922	18	mask.bmp	blankscreen.bmp	wmd1.bmp	blankscreen.bmp	circle.bmp
209	real_b	real_bottomright_same_b	1	875	18	mask.bmp	blankscreen.bmp	wfd10.bmp	blankscreen.bmp	circle.bmp
209	real_b	real_bottomright_diff_b	2	729	23	mask.bmp	blankscreen.bmp	wfd6.bmp	blankscreen.bmp	square.bmp
209	real_b	real_topright_same_b	3	749	23	mask.bmp	blankscreen.bmp	wmn10.bmp	blankscreen.bmp	square.bmp
209	real_b	real_topleft_same_b	4	752	18	mask.bmp	blankscreen.bmp	wmd9.bmp	blankscreen.bmp	circle.bmp
209	real_b	real_topright_diff_b	5	836	18	mask.bmp	blankscreen.bmp	wfn6.bmp	blankscreen.bmp	circle.bmp
209	real_b	real_topleft_diff_b	6	1020	18	mask.bmp	blankscreen.bmp	wmd8.bmp	blankscreen.bmp	circle.bmp
209	real_b	real_bottomleft_same_b	7	828	18	mask.bmp	blankscreen.bmp	wmd10.bmp	blankscreen.bmp	circle.bmp
209	real_b	real_bottomright_same_b	8	604	18	mask.bmp	blankscreen.bmp	wfn10.bmp	blankscreen.bmp	circle.bmp
209	real_b	real_topright_diff_b	9	549	18	mask.bmp	blankscreen.bmp	wmn7.bmp	blankscreen.bmp	circle.bmp
209	real_b	real_topleft_same_b	10	633	23	mask.bmp	blankscreen.bmp	wmn9.bmp	blankscreen.bmp	square.bmp
209	real_b	real_bottomleft_diff_b	11	1122	18	mask.bmp	blankscreen.bmp	wfn7.bmp	blankscreen.bmp	circle.bmp
209	real_b	real_bottomleft_same_b	12	605	18	mask.bmp	blankscreen.bmp	wfd9.bmp	blankscreen.bmp	circle.bmp
209	real_b	real_bottomleft_diff_b	13	790	18	mask.bmp	blankscreen.bmp	wmn8.bmp	blankscreen.bmp	circle.bmp
209	real_b	real_topright_same_b	14	735	18	mask.bmp	blankscreen.bmp	wfn9.bmp	blankscreen.bmp	circle.bmp
209	real_b	real_topleft_diff_b	15	836	23	mask.bmp	blankscreen.bmp	wmn6.bmp	blankscreen.bmp	square.bmp
209	real_b	real_bottomright_diff_b	16	756	18	mask.bmp	blankscreen.bmp	wmd7.bmp	blankscreen.bmp	circle.bmp
209	real_b	real_bottomright_diff_b	17	701	23	mask.bmp	blankscreen.bmp	wfn8.bmp	blankscreen.bmp	square.bmp
209	real_b	real_topleft_diff_b	18	972	23	mask.bmp	blankscreen.bmp	wfd7.bmp	blankscreen.bmp	square.bmp
209	real_b	real_topright_diff_b	19	734	18	mask.bmp	blankscreen.bmp	wfd8.bmp	blankscreen.bmp	circle.bmp
209	real_b	real_bottomleft_diff_b	20	1329	18	mask.bmp	blankscreen.bmp	wmd6.bmp	blankscreen.bmp	circle.bmp
209	real_c	real_topright_diff_c	1	941	18	mask.bmp	blankscreen.bmp	wmn3.bmp	blankscreen.bmp	circle.bmp
209	real_c	real_bottomleft_same_c	2	648	18	mask.bmp	blankscreen.bmp	wfd2.bmp	blankscreen.bmp	circle.bmp
209	real_c	real_bottomright_diff_c	3	640	23	mask.bmp	blankscreen.bmp	wmd3.bmp	blankscreen.bmp	square.bmp
209	real_c	real_bottomleft_diff_c	4	752	18	mask.bmp	blankscreen.bmp	wfn3.bmp	blankscreen.bmp	circle.bmp
209	real_c	real_topleft_diff_c	5	467	23	mask.bmp	blankscreen.bmp	wfd3.bmp	blankscreen.bmp	square.bmp
209	real_c	real_bottomright_diff_c	6	563	23	mask.bmp	blankscreen.bmp	wfd5.bmp	blankscreen.bmp	square.bmp
209	real_c	real_topleft_same_c	7	526	23	mask.bmp	blankscreen.bmp	wfn1.bmp	blankscreen.bmp	square.bmp
209	real_c	real_bottomleft_same_c	8	611	18	mask.bmp	blankscreen.bmp	wmn1.bmp	blankscreen.bmp	circle.bmp
209	real_c	real_topleft_diff_c	9	676	23	mask.bmp	blankscreen.bmp	wfn4.bmp	blankscreen.bmp	square.bmp
209	real_c	real_topleft_same_c	10	835	23	mask.bmp	blankscreen.bmp	wfd1.bmp	blankscreen.bmp	square.bmp
209	real_c	real_topright_same_c	11	627	23	mask.bmp	blankscreen.bmp	wfn2.bmp	blankscreen.bmp	square.bmp
209	real_c	real_topright_diff_c	12	707	18	mask.bmp	blankscreen.bmp	wfn5.bmp	blankscreen.bmp	circle.bmp
209	real_c	real_bottomleft_diff_c	13	808	18	mask.bmp	blankscreen.bmp	wfd4.bmp	blankscreen.bmp	circle.bmp
209	real_c	real_bottomright_same_c	14	753	18	mask.bmp	blankscreen.bmp	wmn2.bmp	blankscreen.bmp	circle.bmp
209	real_c	real_bottomright_diff_c	15	660	18	mask.bmp	blankscreen.bmp	wmn4.bmp	blankscreen.bmp	circle.bmp
209	real_c	real_topright_same_c	16	891	18	mask.bmp	blankscreen.bmp	wmd1.bmp	blankscreen.bmp	circle.bmp
209	real_c	real_topright_diff_c	17	512	18	mask.bmp	blankscreen.bmp	wmd4.bmp	blankscreen.bmp	circle.bmp
209	real_c	real_topleft_diff_c	18	518	23	mask.bmp	blankscreen.bmp	wmn5.bmp	blankscreen.bmp	square.bmp
209	real_c	real_bottomright_same_c	19	691	23	mask.bmp	blankscreen.bmp	wmd2.bmp	blankscreen.bmp	square.bmp
209	real_c	real_bottomleft_diff_c	20	569	23	mask.bmp	blankscreen.bmp	wmd5.bmp	blankscreen.bmp	square.bmp
209	real_d	real_topright_diff_d	1	591	23	mask.bmp	blankscreen.bmp	wfn8.bmp	blankscreen.bmp	square.bmp
209	real_d	real_bottomleft_same_d	2	697	23	mask.bmp	blankscreen.bmp	wfn6.bmp	blankscreen.bmp	square.bmp
209	real_d	real_bottomright_diff_d	3	695	23	mask.bmp	blankscreen.bmp	wmn10.bmp	blankscreen.bmp	square.bmp
209	real_d	real_bottomright_diff_d	4	684	18	mask.bmp	blankscreen.bmp	wfn9.bmp	blankscreen.bmp	circle.bmp
209	real_d	real_topright_same_d	5	683	23	mask.bmp	blankscreen.bmp	wfd6.bmp	blankscreen.bmp	square.bmp
209	real_d	real_topright_same_d	6	409	23	mask.bmp	blankscreen.bmp	wmd7.bmp	blankscreen.bmp	square.bmp
209	real_d	real_topright_diff_d	7	739	18	mask.bmp	blankscreen.bmp	wfd9.bmp	blankscreen.bmp	circle.bmp
209	real_d	real_bottomright_same_d	8	630	23	mask.bmp	blankscreen.bmp	wfd7.bmp	blankscreen.bmp	square.bmp
209	real_d	real_bottomleft_same_d	9	551	18	mask.bmp	blankscreen.bmp	wmn7.bmp	blankscreen.bmp	square.bmp
209	real_d	real_topleft_same_d	10	819	23	mask.bmp	blankscreen.bmp	wmn6.bmp	blankscreen.bmp	square.bmp
209	real_d	real_bottomright_diff_d	11	804	18	mask.bmp	blankscreen.bmp	wfd8.bmp	blankscreen.bmp	circle.bmp
209	real_d	real_bottomleft_diff_d	12	844	18	mask.bmp	blankscreen.bmp	wmn9.bmp	blankscreen.bmp	circle.bmp
209	real_d	real_topleft_same_d	13	883	18	mask.bmp	blankscreen.bmp	wmd6.bmp	blankscreen.bmp	circle.bmp
209	real_d	real_topleft_diff_d	14	713	23	mask.bmp	blankscreen.bmp	wmd9.bmp	blankscreen.bmp	square.bmp
209	real_d	real_bottomright_same_d	15	766	18	mask.bmp	blankscreen.bmp	wfn7.bmp	blankscreen.bmp	circle.bmp
209	real_d	real_topleft_diff_d	16	913	23	mask.bmp	blankscreen.bmp	wfn10.bmp	blankscreen.bmp	square.bmp
209	real_d	real_topleft_diff_d	17	693	23	mask.bmp	blankscreen.bmp	wmn8.bmp	blankscreen.bmp	square.bmp
209	real_d	real_bottomleft_diff_d	18	891	18	mask.bmp	blankscreen.bmp	wmd8.bmp	blankscreen.bmp	circle.bmp
209	real_d	real_topright_diff_d	19	664	18	mask.bmp	blankscreen.bmp	wmd10.bmp	blankscreen.bmp	circle.bmp
209	real_d	real_bottomleft_diff_d	20	759	23	mask.bmp	blankscreen.bmp	wfd10.bmp	blankscreen.bmp	square.bmp
215	practice	practice_bottomright_same	1	1090	23	mask.bmp	blankscreen.bmp	practice7.jpg	blankscreen.bmp	square.bmp
215	practice	practice_topright_diff	2	559	18	mask.bmp	blankscreen.bmp	practice10.jpg	blankscreen.bmp	circle.bmp
215	practice	practice_bottomright_diff	3	906	23	mask.bmp	blankscreen.bmp	practice12.jpg	blankscreen.bmp	square.bmp
215	practice	practice_topleft_same	4	870	18	mask.bmp	blankscreen.bmp	practice1.jpg	blankscreen.bmp	circle.bmp
215	practice	practice_topleft_same	5	925	23	mask.bmp	blankscreen.bmp	practice2.jpg	blankscreen.bmp	square.bmp
215	practice	practice_bottomleft_same	6	665	18	mask.bmp	blankscreen.bmp	practice5.jpg	blankscreen.bmp	circle.bmp
215	practice	practice_bottomleft_same	7	728	23	mask.bmp	blankscreen.bmp	practice6.jpg	blankscreen.bmp	square.bmp
215	practice	practice_bottomleft_diff	8	732	18	mask.bmp	blankscreen.bmp	practice11.jpg	blankscreen.bmp	circle.bmp
215	practice	practice_topleft_diff	9	1064	18	mask.bmp	blankscreen.bmp	practice9.jpg	blankscreen.bmp	square.bmp
215	practice	practice_topright_same	10	1590	18	mask.bmp	blankscreen.bmp	practice4.jpg	blankscreen.bmp	circle.bmp
215	practice	practice_topright_same	11	541	23	mask.bmp	blankscreen.bmp	practice3.jpg	blankscreen.bmp	square.bmp
215	practice	practice_bottomright_same	12	1505	18	mask.bmp	blankscreen.bmp	practice8.jpg	blankscreen.bmp	circle.bmp
215	real_a	real_bottomleft_diff_a	1	540	18	mask.bmp	blankscreen.bmp	wmn2.bmp	blankscreen.bmp	circle.bmp
215	real_a	real_topleft_same_a	2	496	23	mask.bmp	blankscreen.bmp	wfd4.bmp	blankscreen.bmp	square.bmp
215	real_a	real_topright_same_a	3	542	18	mask.bmp	blankscreen.bmp	wmn4.bmp	blankscreen.bmp	circle.bmp
215	real_a	real_topleft_diff_a	4	530	18	mask.bmp	blankscreen.bmp	wfn3.bmp	blankscreen.bmp	circle.bmp
215	real_a	real_topleft_diff_a	5	1455	18	mask.bmp	blankscreen.bmp	wmd2.bmp	blankscreen.bmp	circle.bmp
215	real_a	real_topleft_same_a	6	644	18	mask.bmp	blankscreen.bmp	wfn4.bmp	blankscreen.bmp	circle.bmp
215	real_a	real_bottomleft_diff_a	7	476	23	mask.bmp	blankscreen.bmp	wfn1.bmp	blankscreen.bmp	square.bmp
215	real_a	real_bottomright_same_a	8	499	23	mask.bmp	blankscreen.bmp	wmn5.bmp	blankscreen.bmp	square.bmp
215	real_a	real_topleft_diff_a	9	457	18	mask.bmp	blankscreen.bmp	wfd1.bmp	blankscreen.bmp	circle.bmp
215	real_a	real_bottomright_diff_a	10	633	18	mask.bmp	blankscreen.bmp	wmd1.bmp	blankscreen.bmp	square.bmp
215	real_a	real_topright_diff_a	11	722	23	mask.bmp	blankscreen.bmp	wmn1.bmp	blankscreen.bmp	square.bmp
215	real_a	real_bottomleft_diff_a	12	614	18	mask.bmp	blankscreen.bmp	wfd3.bmp	blankscreen.bmp	circle.bmp
215	real_a	real_bottomright_diff_a	13	687	18	mask.bmp	blankscreen.bmp	wfn2.bmp	blankscreen.bmp	circle.bmp
215	real_a	real_topright_diff_a	14	469	23	mask.bmp	blankscreen.bmp	wmd3.bmp	blankscreen.bmp	square.bmp
215	real_a	real_topright_diff_a	15	468	18	mask.bmp	blankscreen.bmp	wfd2.bmp	blankscreen.bmp	circle.bmp
215	real_a	real_bottomleft_same_a	16	501	18	mask.bmp	blankscreen.bmp	wfn5.bmp	blankscreen.bmp	circle.bmp
215	real_a	real_topright_same_a	17	490	23	mask.bmp	blankscreen.bmp	wfd5.bmp	blankscreen.bmp	square.bmp
215	real_a	real_bottomright_diff_a	18	561	23	mask.bmp	blankscreen.bmp	wmn3.bmp	blankscreen.bmp	square.bmp
215	real_a	real_bottomright_same_a	19	788	18	mask.bmp	blankscreen.bmp	wmd5.bmp	blankscreen.bmp	circle.bmp
215	real_a	real_bottomleft_same_a	20	517	18	mask.bmp	blankscreen.bmp	wmd4.bmp	blankscreen.bmp	circle.bmp
215	real_b	real_topleft_diff_b	1	479	18	mask.bmp	blankscreen.bmp	wmd8.bmp	blankscreen.bmp	circle.bmp
215	real_b	real_topright_same_b	2	470	18	mask.bmp	blankscreen.bmp	wmn10.bmp	blankscreen.bmp	circle.bmp
215	real_b	real_topright_diff_b	3	460	18	mask.bmp	blankscreen.bmp	wmn7.bmp	blankscreen.bmp	circle.bmp
215	real_b	real_topleft_diff_b	4	468	18	mask.bmp	blankscreen.bmp	wfd7.bmp	blankscreen.bmp	circle.bmp
215	real_b	real_bottomright_same_b	5	516	18	mask.bmp	blankscreen.bmp	wfd10.bmp	blankscreen.bmp	circle.bmp
215	real_b	real_bottomright_same_b	6	401	18	mask.bmp	blankscreen.bmp	wfn10.bmp	blankscreen.bmp	circle.bmp
215	real_b	real_bottomleft_same_b	7	412	23	mask.bmp	blankscreen.bmp	wfd9.bmp	blankscreen.bmp	square.bmp
215	real_b	real_bottomright_diff_b	8	510	23	mask.bmp	blankscreen.bmp	wmd7.bmp	blankscreen.bmp	square.bmp
215	real_b	real_topright_diff_b	9	411	18	mask.bmp	blankscreen.bmp	wfd8.bmp	blankscreen.bmp	circle.bmp
215	real_b	real_topleft_diff_b	10	517	23	mask.bmp	blankscreen.bmp	wmn6.bmp	blankscreen.bmp	square.bmp
215	real_b	real_bottomleft_diff_b	11	491	23	mask.bmp	blankscreen.bmp	wmn8.bmp	blankscreen.bmp	square.bmp
215	real_b	real_bottomright_diff_b	12	513	23	mask.bmp	blankscreen.bmp	wfd6.bmp	blankscreen.bmp	square.bmp
215	real_b	real_bottomright_diff_b	13	494	23	mask.bmp	blankscreen.bmp	wfn8.bmp	blankscreen.bmp	square.bmp
215	real_b	real_topright_diff_b	14	389	18	mask.bmp	blankscreen.bmp	wfn6.bmp	blankscreen.bmp	circle.bmp
215	real_b	real_bottomleft_diff_b	15	439	18	mask.bmp	blankscreen.bmp	wfn7.bmp	blankscreen.bmp	circle.bmp
215	real_b	real_bottomleft_diff_b	16	416	23	mask.bmp	blankscreen.bmp	wmd6.bmp	blankscreen.bmp	square.bmp
215	real_b	real_topright_same_b	17	561	23	mask.bmp	blankscreen.bmp	wfn9.bmp	blankscreen.bmp	square.bmp
215	real_b	real_bottomleft_same_b	18	517	23	mask.bmp	blankscreen.bmp	wmd10.bmp	blankscreen.bmp	square.bmp
215	real_b	real_topleft_same_b	19	626	23	mask.bmp	blankscreen.bmp	wmn9.bmp	blankscreen.bmp	square.bmp
215	real_b	real_topleft_same_b	20	427	18	mask.bmp	blankscreen.bmp	wmd9.bmp	blankscreen.bmp	circle.bmp
215	real_c	real_topleft_same_c	1	517	23	mask.bmp	blankscreen.bmp	wfn1.bmp	blankscreen.bmp	square.bmp
215	real_c	real_bottomright_same_c	2	506	18	mask.bmp	blankscreen.bmp	wmd2.bmp	blankscreen.bmp	circle.bmp
215	real_c	real_bottomright_diff_c	3	480	18	mask.bmp	blankscreen.bmp	wfd5.bmp	blankscreen.bmp	circle.bmp
215	real_c	real_bottomleft_same_c	4	471	18	mask.bmp	blankscreen.bmp	wmn1.bmp	blankscreen.bmp	circle.bmp
215	real_c	real_bottomleft_diff_c	5	534	18	mask.bmp	blankscreen.bmp	wfd4.bmp	blankscreen.bmp	circle.bmp
215	real_c	real_topleft_diff_c	6	546	18	mask.bmp	blankscreen.bmp	wfd3.bmp	blankscreen.bmp	circle.bmp
215	real_c	real_topleft_diff_c	7	487	18	mask.bmp	blankscreen.bmp	wmn5.bmp	blankscreen.bmp	circle.bmp
215	real_c	real_topleft_same_c	8	509	18	mask.bmp	blankscreen.bmp	wfd1.bmp	blankscreen.bmp	circle.bmp
215	real_c	real_bottomright_same_c	9	450	18	mask.bmp	blankscreen.bmp	wmn2.bmp	blankscreen.bmp	circle.bmp
215	real_c	real_topright_same_c	10	379	18	mask.bmp	blankscreen.bmp	wfn2.bmp	blankscreen.bmp	circle.bmp
215	real_c	real_bottomright_diff_c	11	494	23	mask.bmp	blankscreen.bmp	wmn4.bmp	blankscreen.bmp	square.bmp
215	real_c	real_topright_diff_c	12	532	18	mask.bmp	blankscreen.bmp	wmn3.bmp	blankscreen.bmp	circle.bmp
215	real_c	real_topright_diff_c	13	433	18	mask.bmp	blankscreen.bmp	wmd4.bmp	blankscreen.bmp	circle.bmp
215	real_c	real_bottomleft_diff_c	14	386	23	mask.bmp	blankscreen.bmp	wmd5.bmp	blankscreen.bmp	square.bmp
215	real_c	real_bottomleft_diff_c	15	685	18	mask.bmp	blankscreen.bmp	wfn3.bmp	blankscreen.bmp	circle.bmp
215	real_c	real_topleft_diff_c	16	531	18	mask.bmp	blankscreen.bmp	wfn4.bmp	blankscreen.bmp	circle.bmp
215	real_c	real_topright_same_c	17	616	18	mask.bmp	blankscreen.bmp	wmd1.bmp	blankscreen.bmp	circle.bmp
215	real_c	real_topright_diff_c	18	857	18	mask.bmp	blankscreen.bmp	wfn5.bmp	blankscreen.bmp	circle.bmp
215	real_c	real_bottomleft_same_c	19	560	23	mask.bmp	blankscreen.bmp	wfd2.bmp	blankscreen.bmp	square.bmp
215	real_c	real_bottomright_diff_c	20	395	23	mask.bmp	blankscreen.bmp	wmd3.bmp	blankscreen.bmp	square.bmp
215	real_d	real_topright_same_d	1	565	18	mask.bmp	blankscreen.bmp	wmd7.bmp	blankscreen.bmp	circle.bmp
215	real_d	real_bottomright_diff_d	2	488	23	mask.bmp	blankscreen.bmp	wmn10.bmp	blankscreen.bmp	square.bmp
215	real_d	real_topleft_same_d	3	503	23	mask.bmp	blankscreen.bmp	wmd6.bmp	blankscreen.bmp	square.bmp
215	real_d	real_bottomleft_diff_d	4	556	18	mask.bmp	blankscreen.bmp	wmd8.bmp	blankscreen.bmp	circle.bmp
215	real_d	real_topleft_same_d	5	415	23	mask.bmp	blankscreen.bmp	wmn6.bmp	blankscreen.bmp	square.bmp
215	real_d	real_bottomright_diff_d	6	553	18	mask.bmp	blankscreen.bmp	wfd8.bmp	blankscreen.bmp	circle.bmp
215	real_d	real_topright_same_d	7	765	18	mask.bmp	blankscreen.bmp	wfd6.bmp	blankscreen.bmp	circle.bmp
215	real_d	real_topright_diff_d	8	591	23	mask.bmp	blankscreen.bmp	wfd9.bmp	blankscreen.bmp	square.bmp
215	real_d	real_topleft_diff_d	9	769	18	mask.bmp	blankscreen.bmp	wmd9.bmp	blankscreen.bmp	circle.bmp
215	real_d	real_topleft_diff_d	10	540	23	mask.bmp	blankscreen.bmp	wmn8.bmp	blankscreen.bmp	square.bmp
215	real_d	real_bottomleft_same_d	11	408	18	mask.bmp	blankscreen.bmp	wfn6.bmp	blankscreen.bmp	circle.bmp
215	real_d	real_bottomright_same_d	12	370	23	mask.bmp	blankscreen.bmp	wfn7.bmp	blankscreen.bmp	square.bmp
215	real_d	real_topright_diff_d	13	461	18	mask.bmp	blankscreen.bmp	wfn8.bmp	blankscreen.bmp	circle.bmp
215	real_d	real_bottomright_diff_d	14	542	23	mask.bmp	blankscreen.bmp	wfn9.bmp	blankscreen.bmp	square.bmp
215	real_d	real_bottomleft_same_d	15	369	23	mask.bmp	blankscreen.bmp	wmn7.bmp	blankscreen.bmp	square.bmp
215	real_d	real_topright_diff_d	16	605	23	mask.bmp	blankscreen.bmp	wmd10.bmp	blankscreen.bmp	square.bmp
215	real_d	real_topleft_diff_d	17	470	18	mask.bmp	blankscreen.bmp	wfn10.bmp	blankscreen.bmp	circle.bmp
215	real_d	real_bottomleft_diff_d	18	549	23	mask.bmp	blankscreen.bmp	wmn9.bmp	blankscreen.bmp	square.bmp
215	real_d	real_bottomright_same_d	19	465	18	mask.bmp	blankscreen.bmp	wfd7.bmp	blankscreen.bmp	circle.bmp
215	real_d	real_bottomleft_diff_d	20	449	23	mask.bmp	blankscreen.bmp	wfd10.bmp	blankscreen.bmp	square.bmp
219	practice	practice_bottomleft_same	1	773	23	mask.bmp	blankscreen.bmp	practice5.jpg	blankscreen.bmp	circle.bmp
219	practice	practice_topright_same	2	623	18	mask.bmp	blankscreen.bmp	practice3.jpg	blankscreen.bmp	circle.bmp
219	practice	practice_bottomleft_diff	3	887	18	mask.bmp	blankscreen.bmp	practice11.jpg	blankscreen.bmp	circle.bmp
219	practice	practice_topright_same	4	644	23	mask.bmp	blankscreen.bmp	practice4.jpg	blankscreen.bmp	square.bmp
219	practice	practice_bottomleft_same	5	436	18	mask.bmp	blankscreen.bmp	practice6.jpg	blankscreen.bmp	circle.bmp
219	practice	practice_topleft_same	6	508	23	mask.bmp	blankscreen.bmp	practice1.jpg	blankscreen.bmp	square.bmp
219	practice	practice_topright_diff	7	658	18	mask.bmp	blankscreen.bmp	practice10.jpg	blankscreen.bmp	circle.bmp
219	practice	practice_topleft_same	8	561	23	mask.bmp	blankscreen.bmp	practice2.jpg	blankscreen.bmp	square.bmp
219	practice	practice_topleft_diff	9	556	18	mask.bmp	blankscreen.bmp	practice9.jpg	blankscreen.bmp	circle.bmp
219	practice	practice_bottomright_same	10	312	23	mask.bmp	blankscreen.bmp	practice8.jpg	blankscreen.bmp	circle.bmp
219	practice	practice_bottomright_same	11	366	18	mask.bmp	blankscreen.bmp	practice7.jpg	blankscreen.bmp	circle.bmp
219	practice	practice_bottomright_diff	12	618	18	mask.bmp	blankscreen.bmp	practice12.jpg	blankscreen.bmp	circle.bmp
219	real_a	real_topright_diff_a	1	553	18	mask.bmp	blankscreen.bmp	wfd2.bmp	blankscreen.bmp	circle.bmp
219	real_a	real_bottomright_diff_a	2	716	23	mask.bmp	blankscreen.bmp	wfn2.bmp	blankscreen.bmp	square.bmp
219	real_a	real_bottomleft_diff_a	3	1177	23	mask.bmp	blankscreen.bmp	wfd3.bmp	blankscreen.bmp	square.bmp
219	real_a	real_bottomleft_diff_a	4	626	23	mask.bmp	blankscreen.bmp	wfn1.bmp	blankscreen.bmp	square.bmp
219	real_a	real_topright_same_a	5	723	23	mask.bmp	blankscreen.bmp	wfd5.bmp	blankscreen.bmp	square.bmp
219	real_a	real_bottomright_diff_a	6	831	23	mask.bmp	blankscreen.bmp	wmd1.bmp	blankscreen.bmp	square.bmp
219	real_a	real_topleft_diff_a	7	455	23	mask.bmp	blankscreen.bmp	wfd1.bmp	blankscreen.bmp	square.bmp
219	real_a	real_topleft_same_a	8	614	23	mask.bmp	blankscreen.bmp	wfd4.bmp	blankscreen.bmp	square.bmp
219	real_a	real_bottomright_same_a	9	520	23	mask.bmp	blankscreen.bmp	wmn5.bmp	blankscreen.bmp	square.bmp
219	real_a	real_topleft_same_a	10	709	18	mask.bmp	blankscreen.bmp	wfn4.bmp	blankscreen.bmp	circle.bmp
219	real_a	real_bottomleft_diff_a	11	561	23	mask.bmp	blankscreen.bmp	wmn2.bmp	blankscreen.bmp	square.bmp
219	real_a	real_topleft_diff_a	12	814	18	mask.bmp	blankscreen.bmp	wfn3.bmp	blankscreen.bmp	circle.bmp
219	real_a	real_bottomright_same_a	13	693	23	mask.bmp	blankscreen.bmp	wmd5.bmp	blankscreen.bmp	circle.bmp
219	real_a	real_topright_diff_a	14	707	18	mask.bmp	blankscreen.bmp	wmd3.bmp	blankscreen.bmp	circle.bmp
219	real_a	real_topright_diff_a	15	552	18	mask.bmp	blankscreen.bmp	wmn1.bmp	blankscreen.bmp	circle.bmp
219	real_a	real_bottomleft_same_a	16	412	18	mask.bmp	blankscreen.bmp	wmd4.bmp	blankscreen.bmp	circle.bmp
219	real_a	real_topright_same_a	17	430	18	mask.bmp	blankscreen.bmp	wmn4.bmp	blankscreen.bmp	circle.bmp
219	real_a	real_bottomleft_same_a	18	855	18	mask.bmp	blankscreen.bmp	wfn5.bmp	blankscreen.bmp	circle.bmp
219	real_a	real_bottomright_diff_a	19	509	23	mask.bmp	blankscreen.bmp	wmn3.bmp	blankscreen.bmp	square.bmp
219	real_a	real_topleft_diff_a	20	1019	23	mask.bmp	blankscreen.bmp	wmd2.bmp	blankscreen.bmp	square.bmp
219	real_b	real_bottomright_diff_b	1	1028	23	mask.bmp	blankscreen.bmp	wfd6.bmp	blankscreen.bmp	square.bmp
219	real_b	real_topleft_same_b	2	604	23	mask.bmp	blankscreen.bmp	wmn9.bmp	blankscreen.bmp	square.bmp
219	real_b	real_topright_diff_b	3	589	18	mask.bmp	blankscreen.bmp	wfn6.bmp	blankscreen.bmp	circle.bmp
219	real_b	real_bottomright_diff_b	4	703	23	mask.bmp	blankscreen.bmp	wmd7.bmp	blankscreen.bmp	circle.bmp
219	real_b	real_topleft_same_b	5	532	23	mask.bmp	blankscreen.bmp	wmd9.bmp	blankscreen.bmp	square.bmp
219	real_b	real_topleft_diff_b	6	633	23	mask.bmp	blankscreen.bmp	wmd8.bmp	blankscreen.bmp	square.bmp
219	real_b	real_topleft_diff_b	7	546	18	mask.bmp	blankscreen.bmp	wmn6.bmp	blankscreen.bmp	circle.bmp
219	real_b	real_topright_diff_b	8	630	23	mask.bmp	blankscreen.bmp	wmn7.bmp	blankscreen.bmp	square.bmp
219	real_b	real_bottomleft_same_b	9	390	23	mask.bmp	blankscreen.bmp	wfd9.bmp	blankscreen.bmp	square.bmp
219	real_b	real_topright_same_b	10	473	23	mask.bmp	blankscreen.bmp	wfn9.bmp	blankscreen.bmp	square.bmp
219	real_b	real_bottomleft_diff_b	11	792	23	mask.bmp	blankscreen.bmp	wmn8.bmp	blankscreen.bmp	square.bmp
219	real_b	real_bottomleft_diff_b	12	713	23	mask.bmp	blankscreen.bmp	wmd6.bmp	blankscreen.bmp	circle.bmp
219	real_b	real_topright_diff_b	13	566	18	mask.bmp	blankscreen.bmp	wfd8.bmp	blankscreen.bmp	circle.bmp
219	real_b	real_bottomleft_diff_b	14	625	18	mask.bmp	blankscreen.bmp	wfn7.bmp	blankscreen.bmp	circle.bmp
219	real_b	real_topright_same_b	15	586	18	mask.bmp	blankscreen.bmp	wmn10.bmp	blankscreen.bmp	circle.bmp
219	real_b	real_topleft_diff_b	16	796	18	mask.bmp	blankscreen.bmp	wfd7.bmp	blankscreen.bmp	circle.bmp
219	real_b	real_bottomright_diff_b	17	605	18	mask.bmp	blankscreen.bmp	wfn8.bmp	blankscreen.bmp	circle.bmp
219	real_b	real_bottomright_same_b	18	543	23	mask.bmp	blankscreen.bmp	wfd10.bmp	blankscreen.bmp	square.bmp
219	real_b	real_bottomright_same_b	19	587	23	mask.bmp	blankscreen.bmp	wfn10.bmp	blankscreen.bmp	square.bmp
219	real_b	real_bottomleft_same_b	20	517	18	mask.bmp	blankscreen.bmp	wmd10.bmp	blankscreen.bmp	circle.bmp
219	real_c	real_topright_diff_c	1	601	23	mask.bmp	blankscreen.bmp	wfn5.bmp	blankscreen.bmp	square.bmp
219	real_c	real_topleft_diff_c	2	611	18	mask.bmp	blankscreen.bmp	wfd3.bmp	blankscreen.bmp	circle.bmp
219	real_c	real_topleft_same_c	3	468	18	mask.bmp	blankscreen.bmp	wfd1.bmp	blankscreen.bmp	circle.bmp
219	real_c	real_bottomleft_same_c	4	619	18	mask.bmp	blankscreen.bmp	wfd2.bmp	blankscreen.bmp	square.bmp
219	real_c	real_topright_same_c	5	604	18	mask.bmp	blankscreen.bmp	wmd1.bmp	blankscreen.bmp	circle.bmp
219	real_c	real_bottomleft_diff_c	6	613	23	mask.bmp	blankscreen.bmp	wmd5.bmp	blankscreen.bmp	circle.bmp
219	real_c	real_bottomleft_diff_c	7	823	18	mask.bmp	blankscreen.bmp	wfd4.bmp	blankscreen.bmp	circle.bmp
219	real_c	real_bottomright_same_c	8	566	23	mask.bmp	blankscreen.bmp	wmn2.bmp	blankscreen.bmp	square.bmp
219	real_c	real_bottomright_diff_c	9	602	18	mask.bmp	blankscreen.bmp	wmn4.bmp	blankscreen.bmp	circle.bmp
219	real_c	real_bottomright_same_c	10	540	23	mask.bmp	blankscreen.bmp	wmd2.bmp	blankscreen.bmp	square.bmp
219	real_c	real_topright_diff_c	11	576	18	mask.bmp	blankscreen.bmp	wmn3.bmp	blankscreen.bmp	circle.bmp
219	real_c	real_topleft_same_c	12	402	18	mask.bmp	blankscreen.bmp	wfn1.bmp	blankscreen.bmp	circle.bmp
219	real_c	real_topleft_diff_c	13	653	18	mask.bmp	blankscreen.bmp	wfn4.bmp	blankscreen.bmp	circle.bmp
219	real_c	real_bottomleft_diff_c	14	500	18	mask.bmp	blankscreen.bmp	wfn3.bmp	blankscreen.bmp	circle.bmp
219	real_c	real_bottomleft_same_c	15	474	18	mask.bmp	blankscreen.bmp	wmn1.bmp	blankscreen.bmp	circle.bmp
219	real_c	real_bottomright_diff_c	16	713	23	mask.bmp	blankscreen.bmp	wfd5.bmp	blankscreen.bmp	square.bmp
219	real_c	real_topleft_diff_c	17	502	23	mask.bmp	blankscreen.bmp	wmn5.bmp	blankscreen.bmp	circle.bmp
219	real_c	real_topright_same_c	18	652	18	mask.bmp	blankscreen.bmp	wfn2.bmp	blankscreen.bmp	circle.bmp
219	real_c	real_bottomright_diff_c	19	716	18	mask.bmp	blankscreen.bmp	wmd3.bmp	blankscreen.bmp	circle.bmp
219	real_c	real_topright_diff_c	20	545	18	mask.bmp	blankscreen.bmp	wmd4.bmp	blankscreen.bmp	circle.bmp
219	real_d	real_topleft_same_d	1	502	18	mask.bmp	blankscreen.bmp	wmn6.bmp	blankscreen.bmp	circle.bmp
219	real_d	real_bottomright_same_d	2	628	23	mask.bmp	blankscreen.bmp	wfn7.bmp	blankscreen.bmp	square.bmp
219	real_d	real_topright_diff_d	3	525	18	mask.bmp	blankscreen.bmp	wfn8.bmp	blankscreen.bmp	circle.bmp
219	real_d	real_topright_same_d	4	554	23	mask.bmp	blankscreen.bmp	wmd7.bmp	blankscreen.bmp	square.bmp
219	real_d	real_bottomleft_diff_d	5	757	18	mask.bmp	blankscreen.bmp	wmn9.bmp	blankscreen.bmp	circle.bmp
219	real_d	real_topleft_diff_d	6	687	18	mask.bmp	blankscreen.bmp	wmn8.bmp	blankscreen.bmp	circle.bmp
219	real_d	real_topright_diff_d	7	653	18	mask.bmp	blankscreen.bmp	wmd10.bmp	blankscreen.bmp	circle.bmp
219	real_d	real_topright_diff_d	8	709	23	mask.bmp	blankscreen.bmp	wfd9.bmp	blankscreen.bmp	square.bmp
219	real_d	real_topleft_same_d	9	562	18	mask.bmp	blankscreen.bmp	wmd6.bmp	blankscreen.bmp	circle.bmp
219	real_d	real_bottomleft_same_d	10	573	18	mask.bmp	blankscreen.bmp	wfn6.bmp	blankscreen.bmp	square.bmp
219	real_d	real_bottomright_diff_d	11	856	23	mask.bmp	blankscreen.bmp	wfd8.bmp	blankscreen.bmp	square.bmp
219	real_d	real_topleft_diff_d	12	551	18	mask.bmp	blankscreen.bmp	wfn10.bmp	blankscreen.bmp	circle.bmp
219	real_d	real_bottomright_same_d	13	67	23	mask.bmp	blankscreen.bmp	wfd7.bmp	blankscreen.bmp	square.bmp
219	real_d	real_bottomleft_same_d	14	972	18	mask.bmp	blankscreen.bmp	wmn7.bmp	blankscreen.bmp	circle.bmp
219	real_d	real_bottomright_diff_d	15	581	23	mask.bmp	blankscreen.bmp	wmn10.bmp	blankscreen.bmp	square.bmp
219	real_d	real_bottomleft_diff_d	16	672	23	mask.bmp	blankscreen.bmp	wmd8.bmp	blankscreen.bmp	square.bmp
219	real_d	real_topright_same_d	17	534	23	mask.bmp	blankscreen.bmp	wfd6.bmp	blankscreen.bmp	square.bmp
219	real_d	real_bottomright_diff_d	18	707	23	mask.bmp	blankscreen.bmp	wfn9.bmp	blankscreen.bmp	square.bmp
219	real_d	real_topleft_diff_d	19	640	23	mask.bmp	blankscreen.bmp	wmd9.bmp	blankscreen.bmp	square.bmp
219	real_d	real_bottomleft_diff_d	20	520	18	mask.bmp	blankscreen.bmp	wfd10.bmp	blankscreen.bmp	circle.bmp
225	practice	practice_bottomright_same	1	3672	18	mask.bmp	blankscreen.bmp	practice8.jpg	blankscreen.bmp	circle.bmp
225	practice	practice_bottomright_same	2	973	18	mask.bmp	blankscreen.bmp	practice7.jpg	blankscreen.bmp	circle.bmp
225	practice	practice_bottomleft_diff	3	3504	23	mask.bmp	blankscreen.bmp	practice11.jpg	blankscreen.bmp	square.bmp
225	practice	practice_topleft_same	4	900	18	mask.bmp	blankscreen.bmp	practice2.jpg	blankscreen.bmp	circle.bmp
225	practice	practice_topleft_diff	5	1121	23	mask.bmp	blankscreen.bmp	practice9.jpg	blankscreen.bmp	square.bmp
225	practice	practice_topright_same	6	1573	23	mask.bmp	blankscreen.bmp	practice3.jpg	blankscreen.bmp	square.bmp
225	practice	practice_bottomleft_same	7	1124	18	mask.bmp	blankscreen.bmp	practice6.jpg	blankscreen.bmp	circle.bmp
225	practice	practice_bottomleft_same	8	895	23	mask.bmp	blankscreen.bmp	practice5.jpg	blankscreen.bmp	square.bmp
225	practice	practice_bottomright_diff	9	1332	18	mask.bmp	blankscreen.bmp	practice12.jpg	blankscreen.bmp	circle.bmp
225	practice	practice_topright_same	10	591	18	mask.bmp	blankscreen.bmp	practice4.jpg	blankscreen.bmp	circle.bmp
225	practice	practice_topright_diff	11	1553	18	mask.bmp	blankscreen.bmp	practice10.jpg	blankscreen.bmp	circle.bmp
225	practice	practice_topleft_same	12	1330	23	mask.bmp	blankscreen.bmp	practice1.jpg	blankscreen.bmp	square.bmp
225	real_a	real_bottomright_same_a	1	1936	18	mask.bmp	blankscreen.bmp	wmd5.bmp	blankscreen.bmp	circle.bmp
225	real_a	real_topright_diff_a	2	1136	18	mask.bmp	blankscreen.bmp	wmd3.bmp	blankscreen.bmp	circle.bmp
225	real_a	real_topleft_same_a	3	987	23	mask.bmp	blankscreen.bmp	wfn4.bmp	blankscreen.bmp	square.bmp
225	real_a	real_topleft_diff_a	4	1020	18	mask.bmp	blankscreen.bmp	wmd2.bmp	blankscreen.bmp	circle.bmp
225	real_a	real_bottomleft_diff_a	5	1204	23	mask.bmp	blankscreen.bmp	wfd3.bmp	blankscreen.bmp	square.bmp
225	real_a	real_bottomleft_same_a	6	1132	23	mask.bmp	blankscreen.bmp	wfn5.bmp	blankscreen.bmp	square.bmp
225	real_a	real_bottomright_diff_a	7	1239	18	mask.bmp	blankscreen.bmp	wfn2.bmp	blankscreen.bmp	circle.bmp
225	real_a	real_topright_diff_a	8	901	23	mask.bmp	blankscreen.bmp	wmn1.bmp	blankscreen.bmp	square.bmp
225	real_a	real_bottomright_diff_a	9	1402	18	mask.bmp	blankscreen.bmp	wmd1.bmp	blankscreen.bmp	circle.bmp
225	real_a	real_topright_diff_a	10	1010	18	mask.bmp	blankscreen.bmp	wfd2.bmp	blankscreen.bmp	circle.bmp
225	real_a	real_bottomleft_same_a	11	922	23	mask.bmp	blankscreen.bmp	wmd4.bmp	blankscreen.bmp	square.bmp
225	real_a	real_topleft_diff_a	12	1421	18	mask.bmp	blankscreen.bmp	wfd1.bmp	blankscreen.bmp	circle.bmp
225	real_a	real_bottomright_diff_a	13	868	23	mask.bmp	blankscreen.bmp	wmn3.bmp	blankscreen.bmp	square.bmp
225	real_a	real_bottomleft_diff_a	14	866	23	mask.bmp	blankscreen.bmp	wfn1.bmp	blankscreen.bmp	square.bmp
225	real_a	real_topright_same_a	15	689	18	mask.bmp	blankscreen.bmp	wfd5.bmp	blankscreen.bmp	circle.bmp
225	real_a	real_bottomright_same_a	16	583	23	mask.bmp	blankscreen.bmp	wmn5.bmp	blankscreen.bmp	square.bmp
225	real_a	real_topleft_same_a	17	801	23	mask.bmp	blankscreen.bmp	wfd4.bmp	blankscreen.bmp	square.bmp
225	real_a	real_bottomleft_diff_a	18	819	18	mask.bmp	blankscreen.bmp	wmn2.bmp	blankscreen.bmp	circle.bmp
225	real_a	real_topright_same_a	19	595	18	mask.bmp	blankscreen.bmp	wmn4.bmp	blankscreen.bmp	circle.bmp
225	real_a	real_topleft_diff_a	20	1029	23	mask.bmp	blankscreen.bmp	wfn3.bmp	blankscreen.bmp	square.bmp
225	real_b	real_topright_diff_b	1	897	18	mask.bmp	blankscreen.bmp	wfn6.bmp	blankscreen.bmp	circle.bmp
225	real_b	real_bottomright_diff_b	2	615	18	mask.bmp	blankscreen.bmp	wmd7.bmp	blankscreen.bmp	circle.bmp
225	real_b	real_topleft_diff_b	3	848	23	mask.bmp	blankscreen.bmp	wmn6.bmp	blankscreen.bmp	square.bmp
225	real_b	real_bottomleft_same_b	4	799	23	mask.bmp	blankscreen.bmp	wfd9.bmp	blankscreen.bmp	square.bmp
225	real_b	real_bottomleft_diff_b	5	664	18	mask.bmp	blankscreen.bmp	wfn7.bmp	blankscreen.bmp	circle.bmp
225	real_b	real_bottomright_diff_b	6	800	23	mask.bmp	blankscreen.bmp	wfd6.bmp	blankscreen.bmp	square.bmp
225	real_b	real_bottomleft_diff_b	7	2528	18	mask.bmp	blankscreen.bmp	wmd6.bmp	blankscreen.bmp	circle.bmp
225	real_b	real_topleft_diff_b	8	767	23	mask.bmp	blankscreen.bmp	wmd8.bmp	blankscreen.bmp	square.bmp
225	real_b	real_topright_diff_b	9	810	18	mask.bmp	blankscreen.bmp	wmn7.bmp	blankscreen.bmp	circle.bmp
225	real_b	real_bottomleft_diff_b	10	755	18	mask.bmp	blankscreen.bmp	wmn8.bmp	blankscreen.bmp	circle.bmp
225	real_b	real_bottomleft_same_b	11	678	23	mask.bmp	blankscreen.bmp	wmd10.bmp	blankscreen.bmp	square.bmp
225	real_b	real_bottomright_same_b	12	764	23	mask.bmp	blankscreen.bmp	wfn10.bmp	blankscreen.bmp	square.bmp
225	real_b	real_topright_same_b	13	895	18	mask.bmp	blankscreen.bmp	wmn10.bmp	blankscreen.bmp	circle.bmp
225	real_b	real_topleft_diff_b	14	956	18	mask.bmp	blankscreen.bmp	wfd7.bmp	blankscreen.bmp	circle.bmp
225	real_b	real_topleft_same_b	15	926	23	mask.bmp	blankscreen.bmp	wmd9.bmp	blankscreen.bmp	square.bmp
225	real_b	real_topright_diff_b	16	787	18	mask.bmp	blankscreen.bmp	wfd8.bmp	blankscreen.bmp	circle.bmp
225	real_b	real_bottomright_same_b	17	804	23	mask.bmp	blankscreen.bmp	wfd10.bmp	blankscreen.bmp	square.bmp
225	real_b	real_topleft_same_b	18	1013	23	mask.bmp	blankscreen.bmp	wmn9.bmp	blankscreen.bmp	square.bmp
225	real_b	real_bottomright_diff_b	19	965	18	mask.bmp	blankscreen.bmp	wfn8.bmp	blankscreen.bmp	circle.bmp
225	real_b	real_topright_same_b	20	607	18	mask.bmp	blankscreen.bmp	wfn9.bmp	blankscreen.bmp	circle.bmp
225	real_c	real_bottomright_same_c	1	978	23	mask.bmp	blankscreen.bmp	wmd2.bmp	blankscreen.bmp	square.bmp
225	real_c	real_topleft_diff_c	2	739	23	mask.bmp	blankscreen.bmp	wfd3.bmp	blankscreen.bmp	square.bmp
225	real_c	real_topleft_diff_c	3	799	23	mask.bmp	blankscreen.bmp	wmn5.bmp	blankscreen.bmp	square.bmp
225	real_c	real_topleft_same_c	4	728	23	mask.bmp	blankscreen.bmp	wfd1.bmp	blankscreen.bmp	square.bmp
225	real_c	real_bottomleft_same_c	5	836	18	mask.bmp	blankscreen.bmp	wmn1.bmp	blankscreen.bmp	circle.bmp
225	real_c	real_topright_same_c	6	941	23	mask.bmp	blankscreen.bmp	wmd1.bmp	blankscreen.bmp	square.bmp
225	real_c	real_bottomleft_diff_c	7	927	23	mask.bmp	blankscreen.bmp	wfn3.bmp	blankscreen.bmp	square.bmp
225	real_c	real_bottomleft_diff_c	8	707	18	mask.bmp	blankscreen.bmp	wfd4.bmp	blankscreen.bmp	circle.bmp
225	real_c	real_bottomleft_diff_c	9	760	18	mask.bmp	blankscreen.bmp	wmd5.bmp	blankscreen.bmp	circle.bmp
225	real_c	real_topright_same_c	10	891	23	mask.bmp	blankscreen.bmp	wfn2.bmp	blankscreen.bmp	square.bmp
225	real_c	real_topright_diff_c	11	727	23	mask.bmp	blankscreen.bmp	wmd4.bmp	blankscreen.bmp	square.bmp
225	real_c	real_bottomleft_same_c	12	764	23	mask.bmp	blankscreen.bmp	wfd2.bmp	blankscreen.bmp	square.bmp
225	real_c	real_bottomright_diff_c	13	656	18	mask.bmp	blankscreen.bmp	wfd5.bmp	blankscreen.bmp	circle.bmp
225	real_c	real_bottomright_diff_c	14	998	23	mask.bmp	blankscreen.bmp	wmn4.bmp	blankscreen.bmp	square.bmp
225	real_c	real_topright_diff_c	15	782	23	mask.bmp	blankscreen.bmp	wmn3.bmp	blankscreen.bmp	square.bmp
225	real_c	real_bottomright_diff_c	16	752	23	mask.bmp	blankscreen.bmp	wmd3.bmp	blankscreen.bmp	square.bmp
225	real_c	real_topleft_same_c	17	756	18	mask.bmp	blankscreen.bmp	wfn1.bmp	blankscreen.bmp	circle.bmp
225	real_c	real_bottomright_same_c	18	927	18	mask.bmp	blankscreen.bmp	wmn2.bmp	blankscreen.bmp	circle.bmp
225	real_c	real_topright_diff_c	19	962	18	mask.bmp	blankscreen.bmp	wfn5.bmp	blankscreen.bmp	circle.bmp
225	real_c	real_topleft_diff_c	20	693	18	mask.bmp	blankscreen.bmp	wfn4.bmp	blankscreen.bmp	circle.bmp
225	real_d	real_topleft_diff_d	1	2019	23	mask.bmp	blankscreen.bmp	wmd9.bmp	blankscreen.bmp	square.bmp
225	real_d	real_bottomleft_diff_d	2	759	18	mask.bmp	blankscreen.bmp	wmd8.bmp	blankscreen.bmp	circle.bmp
225	real_d	real_topleft_diff_d	3	778	23	mask.bmp	blankscreen.bmp	wfn10.bmp	blankscreen.bmp	square.bmp
225	real_d	real_bottomleft_diff_d	4	844	23	mask.bmp	blankscreen.bmp	wfd10.bmp	blankscreen.bmp	square.bmp
225	real_d	real_topright_diff_d	5	827	23	mask.bmp	blankscreen.bmp	wfd9.bmp	blankscreen.bmp	square.bmp
225	real_d	real_bottomleft_same_d	6	723	18	mask.bmp	blankscreen.bmp	wmn7.bmp	blankscreen.bmp	circle.bmp
225	real_d	real_bottomleft_same_d	7	703	18	mask.bmp	blankscreen.bmp	wfn6.bmp	blankscreen.bmp	circle.bmp
225	real_d	real_bottomright_diff_d	8	780	23	mask.bmp	blankscreen.bmp	wmn10.bmp	blankscreen.bmp	square.bmp
225	real_d	real_topleft_same_d	9	751	23	mask.bmp	blankscreen.bmp	wmd6.bmp	blankscreen.bmp	square.bmp
225	real_d	real_topright_same_d	10	666	18	mask.bmp	blankscreen.bmp	wfd6.bmp	blankscreen.bmp	circle.bmp
225	real_d	real_topright_diff_d	11	785	23	mask.bmp	blankscreen.bmp	wfn8.bmp	blankscreen.bmp	square.bmp
225	real_d	real_topright_same_d	12	755	18	mask.bmp	blankscreen.bmp	wmd7.bmp	blankscreen.bmp	circle.bmp
225	real_d	real_topright_diff_d	13	726	18	mask.bmp	blankscreen.bmp	wmd10.bmp	blankscreen.bmp	circle.bmp
225	real_d	real_bottomright_diff_d	14	794	23	mask.bmp	blankscreen.bmp	wfd8.bmp	blankscreen.bmp	square.bmp
225	real_d	real_bottomleft_diff_d	15	987	18	mask.bmp	blankscreen.bmp	wmn9.bmp	blankscreen.bmp	circle.bmp
225	real_d	real_bottomright_same_d	16	749	23	mask.bmp	blankscreen.bmp	wfd7.bmp	blankscreen.bmp	square.bmp
225	real_d	real_bottomright_same_d	17	761	23	mask.bmp	blankscreen.bmp	wfn7.bmp	blankscreen.bmp	square.bmp
225	real_d	real_topleft_diff_d	18	795	23	mask.bmp	blankscreen.bmp	wmn8.bmp	blankscreen.bmp	square.bmp
225	real_d	real_topleft_same_d	19	821	18	mask.bmp	blankscreen.bmp	wmn6.bmp	blankscreen.bmp	circle.bmp
225	real_d	real_bottomright_diff_d	20	821	23	mask.bmp	blankscreen.bmp	wfn9.bmp	blankscreen.bmp	square.bmp
226	practice	practice_bottomright_diff	1	958	23	mask.bmp	blankscreen.bmp	practice12.jpg	blankscreen.bmp	square.bmp
226	practice	practice_bottomleft_same	2	743	18	mask.bmp	blankscreen.bmp	practice5.jpg	blankscreen.bmp	circle.bmp
226	practice	practice_topleft_same	3	611	23	mask.bmp	blankscreen.bmp	practice1.jpg	blankscreen.bmp	square.bmp
226	practice	practice_bottomright_same	4	884	18	mask.bmp	blankscreen.bmp	practice8.jpg	blankscreen.bmp	circle.bmp
226	practice	practice_topleft_same	5	970	23	mask.bmp	blankscreen.bmp	practice2.jpg	blankscreen.bmp	square.bmp
226	practice	practice_topleft_diff	6	1876	23	mask.bmp	blankscreen.bmp	practice9.jpg	blankscreen.bmp	square.bmp
226	practice	practice_topright_diff	7	775	23	mask.bmp	blankscreen.bmp	practice10.jpg	blankscreen.bmp	square.bmp
226	practice	practice_bottomright_same	8	825	23	mask.bmp	blankscreen.bmp	practice7.jpg	blankscreen.bmp	square.bmp
226	practice	practice_topright_same	9	777	23	mask.bmp	blankscreen.bmp	practice3.jpg	blankscreen.bmp	square.bmp
226	practice	practice_bottomleft_same	10	883	23	mask.bmp	blankscreen.bmp	practice6.jpg	blankscreen.bmp	square.bmp
226	practice	practice_topright_same	11	617	23	mask.bmp	blankscreen.bmp	practice4.jpg	blankscreen.bmp	square.bmp
226	practice	practice_bottomleft_diff	12	866	23	mask.bmp	blankscreen.bmp	practice11.jpg	blankscreen.bmp	square.bmp
226	real_a	real_topright_diff_a	1	1027	18	mask.bmp	blankscreen.bmp	wmn1.bmp	blankscreen.bmp	circle.bmp
226	real_a	real_bottomleft_same_a	2	562	18	mask.bmp	blankscreen.bmp	wmd4.bmp	blankscreen.bmp	circle.bmp
226	real_a	real_topright_diff_a	3	525	18	mask.bmp	blankscreen.bmp	wmd3.bmp	blankscreen.bmp	circle.bmp
226	real_a	real_bottomright_diff_a	4	538	23	mask.bmp	blankscreen.bmp	wmd1.bmp	blankscreen.bmp	square.bmp
226	real_a	real_bottomleft_diff_a	5	847	18	mask.bmp	blankscreen.bmp	wmn2.bmp	blankscreen.bmp	circle.bmp
226	real_a	real_topleft_diff_a	6	757	18	mask.bmp	blankscreen.bmp	wfn3.bmp	blankscreen.bmp	circle.bmp
226	real_a	real_topright_same_a	7	552	23	mask.bmp	blankscreen.bmp	wmn4.bmp	blankscreen.bmp	square.bmp
226	real_a	real_bottomright_same_a	8	860	23	mask.bmp	blankscreen.bmp	wmn5.bmp	blankscreen.bmp	square.bmp
226	real_a	real_bottomleft_same_a	9	755	23	mask.bmp	blankscreen.bmp	wfn5.bmp	blankscreen.bmp	square.bmp
226	real_a	real_topright_diff_a	10	653	18	mask.bmp	blankscreen.bmp	wfd2.bmp	blankscreen.bmp	circle.bmp
226	real_a	real_bottomright_same_a	11	534	23	mask.bmp	blankscreen.bmp	wmd5.bmp	blankscreen.bmp	square.bmp
226	real_a	real_bottomleft_diff_a	12	602	18	mask.bmp	blankscreen.bmp	wfd3.bmp	blankscreen.bmp	circle.bmp
226	real_a	real_topleft_diff_a	13	860	18	mask.bmp	blankscreen.bmp	wmd2.bmp	blankscreen.bmp	circle.bmp
226	real_a	real_topright_same_a	14	619	18	mask.bmp	blankscreen.bmp	wfd5.bmp	blankscreen.bmp	circle.bmp
226	real_a	real_bottomright_diff_a	15	620	18	mask.bmp	blankscreen.bmp	wmn3.bmp	blankscreen.bmp	circle.bmp
226	real_a	real_bottomleft_diff_a	16	500	18	mask.bmp	blankscreen.bmp	wfn1.bmp	blankscreen.bmp	circle.bmp
226	real_a	real_topleft_diff_a	17	507	18	mask.bmp	blankscreen.bmp	wfd1.bmp	blankscreen.bmp	circle.bmp
226	real_a	real_bottomright_diff_a	18	712	23	mask.bmp	blankscreen.bmp	wfn2.bmp	blankscreen.bmp	square.bmp
226	real_a	real_topleft_same_a	19	733	18	mask.bmp	blankscreen.bmp	wfn4.bmp	blankscreen.bmp	circle.bmp
226	real_a	real_topleft_same_a	20	601	23	mask.bmp	blankscreen.bmp	wfd4.bmp	blankscreen.bmp	square.bmp
226	real_b	real_topleft_diff_b	1	539	18	mask.bmp	blankscreen.bmp	wmn6.bmp	blankscreen.bmp	circle.bmp
226	real_b	real_bottomleft_diff_b	2	751	23	mask.bmp	blankscreen.bmp	wfn7.bmp	blankscreen.bmp	square.bmp
226	real_b	real_bottomleft_diff_b	3	666	23	mask.bmp	blankscreen.bmp	wmn8.bmp	blankscreen.bmp	square.bmp
226	real_b	real_bottomright_same_b	4	1017	23	mask.bmp	blankscreen.bmp	wfn10.bmp	blankscreen.bmp	square.bmp
226	real_b	real_topright_same_b	5	513	23	mask.bmp	blankscreen.bmp	wmn10.bmp	blankscreen.bmp	square.bmp
226	real_b	real_bottomright_diff_b	6	559	23	mask.bmp	blankscreen.bmp	wfd6.bmp	blankscreen.bmp	square.bmp
226	real_b	real_bottomleft_same_b	7	602	23	mask.bmp	blankscreen.bmp	wfd9.bmp	blankscreen.bmp	square.bmp
226	real_b	real_bottomright_diff_b	8	756	18	mask.bmp	blankscreen.bmp	wfn8.bmp	blankscreen.bmp	circle.bmp
226	real_b	real_topright_diff_b	9	671	23	mask.bmp	blankscreen.bmp	wfn6.bmp	blankscreen.bmp	square.bmp
226	real_b	real_topleft_same_b	10	566	23	mask.bmp	blankscreen.bmp	wmn9.bmp	blankscreen.bmp	square.bmp
226	real_b	real_bottomleft_same_b	11	561	18	mask.bmp	blankscreen.bmp	wmd10.bmp	blankscreen.bmp	circle.bmp
226	real_b	real_bottomleft_diff_b	12	1236	18	mask.bmp	blankscreen.bmp	wmd6.bmp	blankscreen.bmp	circle.bmp
226	real_b	real_topright_diff_b	13	707	18	mask.bmp	blankscreen.bmp	wmn7.bmp	blankscreen.bmp	circle.bmp
226	real_b	real_topleft_diff_b	14	848	23	mask.bmp	blankscreen.bmp	wfd7.bmp	blankscreen.bmp	square.bmp
226	real_b	real_bottomright_same_b	15	559	18	mask.bmp	blankscreen.bmp	wfd10.bmp	blankscreen.bmp	circle.bmp
226	real_b	real_topright_diff_b	16	698	23	mask.bmp	blankscreen.bmp	wfd8.bmp	blankscreen.bmp	square.bmp
226	real_b	real_topleft_diff_b	17	752	23	mask.bmp	blankscreen.bmp	wmd8.bmp	blankscreen.bmp	square.bmp
226	real_b	real_topleft_same_b	18	428	18	mask.bmp	blankscreen.bmp	wmd9.bmp	blankscreen.bmp	circle.bmp
226	real_b	real_topright_same_b	19	525	23	mask.bmp	blankscreen.bmp	wfn9.bmp	blankscreen.bmp	square.bmp
226	real_b	real_bottomright_diff_b	20	586	18	mask.bmp	blankscreen.bmp	wmd7.bmp	blankscreen.bmp	circle.bmp
226	real_c	real_topleft_diff_c	1	773	18	mask.bmp	blankscreen.bmp	wfn4.bmp	blankscreen.bmp	circle.bmp
226	real_c	real_topright_same_c	2	750	18	mask.bmp	blankscreen.bmp	wmd1.bmp	blankscreen.bmp	circle.bmp
226	real_c	real_bottomleft_diff_c	3	682	18	mask.bmp	blankscreen.bmp	wfd4.bmp	blankscreen.bmp	circle.bmp
226	real_c	real_bottomright_diff_c	4	664	23	mask.bmp	blankscreen.bmp	wmd3.bmp	blankscreen.bmp	square.bmp
226	real_c	real_bottomleft_same_c	5	783	18	mask.bmp	blankscreen.bmp	wmn1.bmp	blankscreen.bmp	circle.bmp
226	real_c	real_topleft_same_c	6	545	23	mask.bmp	blankscreen.bmp	wfd1.bmp	blankscreen.bmp	square.bmp
226	real_c	real_bottomleft_diff_c	7	789	23	mask.bmp	blankscreen.bmp	wfn3.bmp	blankscreen.bmp	square.bmp
226	real_c	real_topleft_same_c	8	519	23	mask.bmp	blankscreen.bmp	wfn1.bmp	blankscreen.bmp	square.bmp
226	real_c	real_bottomright_same_c	9	628	18	mask.bmp	blankscreen.bmp	wmd2.bmp	blankscreen.bmp	circle.bmp
226	real_c	real_topright_diff_c	10	1220	18	mask.bmp	blankscreen.bmp	wfn5.bmp	blankscreen.bmp	circle.bmp
226	real_c	real_bottomright_diff_c	11	476	23	mask.bmp	blankscreen.bmp	wmn4.bmp	blankscreen.bmp	square.bmp
226	real_c	real_topleft_diff_c	12	1195	18	mask.bmp	blankscreen.bmp	wfd3.bmp	blankscreen.bmp	circle.bmp
226	real_c	real_topright_same_c	13	547	23	mask.bmp	blankscreen.bmp	wfn2.bmp	blankscreen.bmp	square.bmp
226	real_c	real_bottomright_diff_c	14	543	18	mask.bmp	blankscreen.bmp	wfd5.bmp	blankscreen.bmp	circle.bmp
226	real_c	real_bottomleft_diff_c	15	611	23	mask.bmp	blankscreen.bmp	wmd5.bmp	blankscreen.bmp	square.bmp
226	real_c	real_topright_diff_c	16	828	23	mask.bmp	blankscreen.bmp	wmd4.bmp	blankscreen.bmp	square.bmp
226	real_c	real_bottomright_same_c	17	780	18	mask.bmp	blankscreen.bmp	wmn2.bmp	blankscreen.bmp	circle.bmp
226	real_c	real_bottomleft_same_c	18	806	18	mask.bmp	blankscreen.bmp	wfd2.bmp	blankscreen.bmp	circle.bmp
226	real_c	real_topright_diff_c	19	1015	18	mask.bmp	blankscreen.bmp	wmn3.bmp	blankscreen.bmp	circle.bmp
226	real_c	real_topleft_diff_c	20	647	18	mask.bmp	blankscreen.bmp	wmn5.bmp	blankscreen.bmp	circle.bmp
226	real_d	real_topright_diff_d	1	615	18	mask.bmp	blankscreen.bmp	wfn8.bmp	blankscreen.bmp	circle.bmp
226	real_d	real_bottomright_diff_d	2	576	23	mask.bmp	blankscreen.bmp	wmn10.bmp	blankscreen.bmp	square.bmp
226	real_d	real_topleft_same_d	3	483	23	mask.bmp	blankscreen.bmp	wmn6.bmp	blankscreen.bmp	square.bmp
226	real_d	real_bottomright_same_d	4	378	23	mask.bmp	blankscreen.bmp	wfd7.bmp	blankscreen.bmp	square.bmp
226	real_d	real_topright_diff_d	5	461	23	mask.bmp	blankscreen.bmp	wfd9.bmp	blankscreen.bmp	square.bmp
226	real_d	real_topright_diff_d	6	453	23	mask.bmp	blankscreen.bmp	wmd10.bmp	blankscreen.bmp	square.bmp
226	real_d	real_topright_same_d	7	741	18	mask.bmp	blankscreen.bmp	wfd6.bmp	blankscreen.bmp	circle.bmp
226	real_d	real_bottomright_diff_d	8	408	18	mask.bmp	blankscreen.bmp	wfd8.bmp	blankscreen.bmp	circle.bmp
226	real_d	real_topleft_diff_d	9	442	23	mask.bmp	blankscreen.bmp	wmn8.bmp	blankscreen.bmp	square.bmp
226	real_d	real_topleft_diff_d	10	362	18	mask.bmp	blankscreen.bmp	wmd9.bmp	blankscreen.bmp	circle.bmp
226	real_d	real_bottomleft_diff_d	11	630	18	mask.bmp	blankscreen.bmp	wmd8.bmp	blankscreen.bmp	circle.bmp
226	real_d	real_bottomright_diff_d	12	399	18	mask.bmp	blankscreen.bmp	wfn9.bmp	blankscreen.bmp	circle.bmp
226	real_d	real_bottomleft_diff_d	13	497	18	mask.bmp	blankscreen.bmp	wmn9.bmp	blankscreen.bmp	circle.bmp
226	real_d	real_bottomleft_same_d	14	424	18	mask.bmp	blankscreen.bmp	wfn6.bmp	blankscreen.bmp	circle.bmp
226	real_d	real_topleft_same_d	15	481	23	mask.bmp	blankscreen.bmp	wmd6.bmp	blankscreen.bmp	square.bmp
226	real_d	real_bottomleft_same_d	16	472	18	mask.bmp	blankscreen.bmp	wmn7.bmp	blankscreen.bmp	circle.bmp
226	real_d	real_topleft_diff_d	17	367	18	mask.bmp	blankscreen.bmp	wfn10.bmp	blankscreen.bmp	square.bmp
226	real_d	real_topright_same_d	18	483	23	mask.bmp	blankscreen.bmp	wmd7.bmp	blankscreen.bmp	circle.bmp
226	real_d	real_bottomright_same_d	19	546	18	mask.bmp	blankscreen.bmp	wfn7.bmp	blankscreen.bmp	circle.bmp
226	real_d	real_bottomleft_diff_d	20	462	18	mask.bmp	blankscreen.bmp	wfd10.bmp	blankscreen.bmp	circle.bmp
228	practice	practice_bottomright_same	1	677	18	mask.bmp	blankscreen.bmp	practice7.jpg	blankscreen.bmp	circle.bmp
228	practice	practice_bottomleft_diff	2	827	23	mask.bmp	blankscreen.bmp	practice11.jpg	blankscreen.bmp	square.bmp
228	practice	practice_bottomright_same	3	707	18	mask.bmp	blankscreen.bmp	practice8.jpg	blankscreen.bmp	circle.bmp
228	practice	practice_topleft_diff	4	1376	23	mask.bmp	blankscreen.bmp	practice9.jpg	blankscreen.bmp	square.bmp
228	practice	practice_bottomleft_same	5	1656	18	mask.bmp	blankscreen.bmp	practice5.jpg	blankscreen.bmp	square.bmp
228	practice	practice_topleft_same	6	628	18	mask.bmp	blankscreen.bmp	practice1.jpg	blankscreen.bmp	circle.bmp
228	practice	practice_topright_diff	7	909	23	mask.bmp	blankscreen.bmp	practice10.jpg	blankscreen.bmp	square.bmp
228	practice	practice_topright_same	8	905	18	mask.bmp	blankscreen.bmp	practice4.jpg	blankscreen.bmp	circle.bmp
228	practice	practice_topright_same	9	917	23	mask.bmp	blankscreen.bmp	practice3.jpg	blankscreen.bmp	square.bmp
228	practice	practice_bottomright_diff	10	634	18	mask.bmp	blankscreen.bmp	practice12.jpg	blankscreen.bmp	circle.bmp
228	practice	practice_topleft_same	11	906	23	mask.bmp	blankscreen.bmp	practice2.jpg	blankscreen.bmp	square.bmp
228	practice	practice_bottomleft_same	12	719	23	mask.bmp	blankscreen.bmp	practice6.jpg	blankscreen.bmp	square.bmp
228	real_a	real_bottomleft_same_a	1	1221	23	mask.bmp	blankscreen.bmp	wmd4.bmp	blankscreen.bmp	square.bmp
228	real_a	real_bottomleft_diff_a	2	1004	18	mask.bmp	blankscreen.bmp	wfd3.bmp	blankscreen.bmp	circle.bmp
228	real_a	real_topright_diff_a	3	1468	23	mask.bmp	blankscreen.bmp	wmd3.bmp	blankscreen.bmp	circle.bmp
228	real_a	real_topleft_same_a	4	2041	18	mask.bmp	blankscreen.bmp	wfn4.bmp	blankscreen.bmp	circle.bmp
228	real_a	real_topright_diff_a	5	1020	18	mask.bmp	blankscreen.bmp	wfd2.bmp	blankscreen.bmp	circle.bmp
228	real_a	real_bottomright_same_a	6	684	18	mask.bmp	blankscreen.bmp	wmn5.bmp	blankscreen.bmp	circle.bmp
228	real_a	real_topleft_diff_a	7	1139	23	mask.bmp	blankscreen.bmp	wfd1.bmp	blankscreen.bmp	square.bmp
228	real_a	real_bottomright_diff_a	8	1165	18	mask.bmp	blankscreen.bmp	wfn2.bmp	blankscreen.bmp	circle.bmp
228	real_a	real_topleft_diff_a	9	918	18	mask.bmp	blankscreen.bmp	wfn3.bmp	blankscreen.bmp	circle.bmp
228	real_a	real_bottomleft_diff_a	10	699	23	mask.bmp	blankscreen.bmp	wfn1.bmp	blankscreen.bmp	square.bmp
228	real_a	real_topright_same_a	11	992	18	mask.bmp	blankscreen.bmp	wfd5.bmp	blankscreen.bmp	circle.bmp
228	real_a	real_bottomleft_same_a	12	769	18	mask.bmp	blankscreen.bmp	wfn5.bmp	blankscreen.bmp	circle.bmp
228	real_a	real_topright_diff_a	13	700	23	mask.bmp	blankscreen.bmp	wmn1.bmp	blankscreen.bmp	square.bmp
228	real_a	real_topright_same_a	14	946	23	mask.bmp	blankscreen.bmp	wmn4.bmp	blankscreen.bmp	square.bmp
228	real_a	real_topleft_same_a	15	1204	23	mask.bmp	blankscreen.bmp	wfd4.bmp	blankscreen.bmp	square.bmp
228	real_a	real_bottomright_diff_a	16	750	18	mask.bmp	blankscreen.bmp	wmn3.bmp	blankscreen.bmp	circle.bmp
228	real_a	real_bottomleft_diff_a	17	816	23	mask.bmp	blankscreen.bmp	wmn2.bmp	blankscreen.bmp	square.bmp
228	real_a	real_topleft_diff_a	18	665	23	mask.bmp	blankscreen.bmp	wmd2.bmp	blankscreen.bmp	square.bmp
228	real_a	real_bottomright_diff_a	19	896	23	mask.bmp	blankscreen.bmp	wmd1.bmp	blankscreen.bmp	square.bmp
228	real_a	real_bottomright_same_a	20	734	23	mask.bmp	blankscreen.bmp	wmd5.bmp	blankscreen.bmp	square.bmp
228	real_b	real_bottomleft_same_b	1	801	18	mask.bmp	blankscreen.bmp	wfd9.bmp	blankscreen.bmp	circle.bmp
228	real_b	real_topright_same_b	2	667	18	mask.bmp	blankscreen.bmp	wfn9.bmp	blankscreen.bmp	circle.bmp
228	real_b	real_topright_diff_b	3	762	18	mask.bmp	blankscreen.bmp	wfd8.bmp	blankscreen.bmp	circle.bmp
228	real_b	real_topleft_diff_b	4	669	23	mask.bmp	blankscreen.bmp	wmn6.bmp	blankscreen.bmp	square.bmp
228	real_b	real_bottomleft_diff_b	5	652	18	mask.bmp	blankscreen.bmp	wmd6.bmp	blankscreen.bmp	circle.bmp
228	real_b	real_topright_diff_b	6	1275	18	mask.bmp	blankscreen.bmp	wfn6.bmp	blankscreen.bmp	circle.bmp
228	real_b	real_bottomleft_diff_b	7	576	23	mask.bmp	blankscreen.bmp	wmn8.bmp	blankscreen.bmp	square.bmp
228	real_b	real_topleft_diff_b	8	731	18	mask.bmp	blankscreen.bmp	wmd8.bmp	blankscreen.bmp	circle.bmp
228	real_b	real_topleft_same_b	9	911	18	mask.bmp	blankscreen.bmp	wmn9.bmp	blankscreen.bmp	circle.bmp
228	real_b	real_bottomleft_diff_b	10	756	18	mask.bmp	blankscreen.bmp	wfn7.bmp	blankscreen.bmp	circle.bmp
228	real_b	real_topright_same_b	11	550	23	mask.bmp	blankscreen.bmp	wmn10.bmp	blankscreen.bmp	square.bmp
228	real_b	real_topleft_same_b	12	722	18	mask.bmp	blankscreen.bmp	wmd9.bmp	blankscreen.bmp	circle.bmp
228	real_b	real_bottomright_diff_b	13	822	18	mask.bmp	blankscreen.bmp	wmd7.bmp	blankscreen.bmp	circle.bmp
228	real_b	real_bottomright_same_b	14	758	18	mask.bmp	blankscreen.bmp	wfd10.bmp	blankscreen.bmp	circle.bmp
228	real_b	real_topright_diff_b	15	625	23	mask.bmp	blankscreen.bmp	wmn7.bmp	blankscreen.bmp	square.bmp
228	real_b	real_bottomleft_same_b	16	578	18	mask.bmp	blankscreen.bmp	wmd10.bmp	blankscreen.bmp	circle.bmp
228	real_b	real_topleft_diff_b	17	708	18	mask.bmp	blankscreen.bmp	wfd7.bmp	blankscreen.bmp	circle.bmp
228	real_b	real_bottomright_same_b	18	985	23	mask.bmp	blankscreen.bmp	wfn10.bmp	blankscreen.bmp	square.bmp
228	real_b	real_bottomright_diff_b	19	1003	23	mask.bmp	blankscreen.bmp	wfd6.bmp	blankscreen.bmp	square.bmp
228	real_b	real_bottomright_diff_b	20	467	18	mask.bmp	blankscreen.bmp	wfn8.bmp	blankscreen.bmp	circle.bmp
228	real_c	real_bottomleft_same_c	1	1025	18	mask.bmp	blankscreen.bmp	wfd2.bmp	blankscreen.bmp	circle.bmp
228	real_c	real_topleft_diff_c	2	713	23	mask.bmp	blankscreen.bmp	wfd3.bmp	blankscreen.bmp	square.bmp
228	real_c	real_bottomright_same_c	3	742	18	mask.bmp	blankscreen.bmp	wmn2.bmp	blankscreen.bmp	circle.bmp
228	real_c	real_bottomright_diff_c	4	569	18	mask.bmp	blankscreen.bmp	wmn4.bmp	blankscreen.bmp	circle.bmp
228	real_c	real_topleft_same_c	5	572	18	mask.bmp	blankscreen.bmp	wfn1.bmp	blankscreen.bmp	circle.bmp
228	real_c	real_bottomright_diff_c	6	743	18	mask.bmp	blankscreen.bmp	wfd5.bmp	blankscreen.bmp	circle.bmp
228	real_c	real_topright_diff_c	7	538	18	mask.bmp	blankscreen.bmp	wmd4.bmp	blankscreen.bmp	circle.bmp
228	real_c	real_topright_same_c	8	726	18	mask.bmp	blankscreen.bmp	wmd1.bmp	blankscreen.bmp	circle.bmp
228	real_c	real_topleft_diff_c	9	883	23	mask.bmp	blankscreen.bmp	wmn5.bmp	blankscreen.bmp	square.bmp
228	real_c	real_bottomright_diff_c	10	824	23	mask.bmp	blankscreen.bmp	wmd3.bmp	blankscreen.bmp	square.bmp
228	real_c	real_bottomleft_diff_c	11	856	18	mask.bmp	blankscreen.bmp	wmd5.bmp	blankscreen.bmp	circle.bmp
228	real_c	real_bottomleft_diff_c	12	799	23	mask.bmp	blankscreen.bmp	wfd4.bmp	blankscreen.bmp	square.bmp
228	real_c	real_bottomleft_same_c	13	792	18	mask.bmp	blankscreen.bmp	wmn1.bmp	blankscreen.bmp	circle.bmp
228	real_c	real_topright_diff_c	14	785	18	mask.bmp	blankscreen.bmp	wmn3.bmp	blankscreen.bmp	circle.bmp
228	real_c	real_topright_diff_c	15	867	23	mask.bmp	blankscreen.bmp	wfn5.bmp	blankscreen.bmp	square.bmp
228	real_c	real_bottomleft_diff_c	16	834	18	mask.bmp	blankscreen.bmp	wfn3.bmp	blankscreen.bmp	circle.bmp
228	real_c	real_topleft_same_c	17	906	18	mask.bmp	blankscreen.bmp	wfd1.bmp	blankscreen.bmp	square.bmp
228	real_c	real_bottomright_same_c	18	806	18	mask.bmp	blankscreen.bmp	wmd2.bmp	blankscreen.bmp	circle.bmp
228	real_c	real_topright_same_c	19	655	23	mask.bmp	blankscreen.bmp	wfn2.bmp	blankscreen.bmp	square.bmp
228	real_c	real_topleft_diff_c	20	726	23	mask.bmp	blankscreen.bmp	wfn4.bmp	blankscreen.bmp	square.bmp
228	real_d	real_bottomright_same_d	1	730	23	mask.bmp	blankscreen.bmp	wfd7.bmp	blankscreen.bmp	square.bmp
228	real_d	real_topleft_diff_d	2	678	18	mask.bmp	blankscreen.bmp	wmd9.bmp	blankscreen.bmp	circle.bmp
228	real_d	real_bottomleft_diff_d	3	965	23	mask.bmp	blankscreen.bmp	wfd10.bmp	blankscreen.bmp	square.bmp
228	real_d	real_bottomright_diff_d	4	751	18	mask.bmp	blankscreen.bmp	wmn10.bmp	blankscreen.bmp	circle.bmp
228	real_d	real_bottomright_diff_d	5	835	23	mask.bmp	blankscreen.bmp	wfd8.bmp	blankscreen.bmp	square.bmp
228	real_d	real_bottomleft_same_d	6	778	23	mask.bmp	blankscreen.bmp	wmn7.bmp	blankscreen.bmp	square.bmp
228	real_d	real_topleft_same_d	7	757	23	mask.bmp	blankscreen.bmp	wmn6.bmp	blankscreen.bmp	square.bmp
228	real_d	real_topright_diff_d	8	895	18	mask.bmp	blankscreen.bmp	wfn8.bmp	blankscreen.bmp	circle.bmp
228	real_d	real_topright_diff_d	9	844	23	mask.bmp	blankscreen.bmp	wfd9.bmp	blankscreen.bmp	square.bmp
228	real_d	real_topleft_same_d	10	884	18	mask.bmp	blankscreen.bmp	wmd6.bmp	blankscreen.bmp	circle.bmp
228	real_d	real_topleft_diff_d	11	1177	18	mask.bmp	blankscreen.bmp	wmn8.bmp	blankscreen.bmp	circle.bmp
228	real_d	real_topright_same_d	12	650	23	mask.bmp	blankscreen.bmp	wmd7.bmp	blankscreen.bmp	square.bmp
228	real_d	real_bottomleft_diff_d	13	858	18	mask.bmp	blankscreen.bmp	wmd8.bmp	blankscreen.bmp	circle.bmp
228	real_d	real_bottomright_diff_d	14	936	18	mask.bmp	blankscreen.bmp	wfn9.bmp	blankscreen.bmp	circle.bmp
228	real_d	real_bottomleft_same_d	15	1100	18	mask.bmp	blankscreen.bmp	wfn6.bmp	blankscreen.bmp	circle.bmp
228	real_d	real_topright_same_d	16	928	18	mask.bmp	blankscreen.bmp	wfd6.bmp	blankscreen.bmp	circle.bmp
228	real_d	real_topleft_diff_d	17	660	18	mask.bmp	blankscreen.bmp	wfn10.bmp	blankscreen.bmp	circle.bmp
228	real_d	real_bottomright_same_d	18	731	23	mask.bmp	blankscreen.bmp	wfn7.bmp	blankscreen.bmp	square.bmp
228	real_d	real_topright_diff_d	19	583	23	mask.bmp	blankscreen.bmp	wmd10.bmp	blankscreen.bmp	square.bmp
228	real_d	real_bottomleft_diff_d	20	658	18	mask.bmp	blankscreen.bmp	wmn9.bmp	blankscreen.bmp	circle.bmp
233	practice	practice_bottomright_same	1	3985	23	mask.bmp	blankscreen.bmp	practice8.jpg	blankscreen.bmp	square.bmp
233	practice	practice_topleft_same	2	1770	18	mask.bmp	blankscreen.bmp	practice1.jpg	blankscreen.bmp	square.bmp
233	practice	practice_topright_diff	3	121	18	mask.bmp	blankscreen.bmp	practice10.jpg	blankscreen.bmp	square.bmp
233	practice	practice_bottomright_diff	4	343	18	mask.bmp	blankscreen.bmp	practice12.jpg	blankscreen.bmp	square.bmp
233	practice	practice_topright_same	5	940	18	mask.bmp	blankscreen.bmp	practice3.jpg	blankscreen.bmp	square.bmp
233	practice	practice_topright_same	6	455	23	mask.bmp	blankscreen.bmp	practice4.jpg	blankscreen.bmp	square.bmp
233	practice	practice_topleft_same	7	167	18	mask.bmp	blankscreen.bmp	practice2.jpg	blankscreen.bmp	square.bmp
233	practice	practice_bottomleft_diff	8	1755	18	mask.bmp	blankscreen.bmp	practice11.jpg	blankscreen.bmp	circle.bmp
233	practice	practice_topleft_diff	9	860	18	mask.bmp	blankscreen.bmp	practice9.jpg	blankscreen.bmp	circle.bmp
233	practice	practice_bottomleft_same	10	538	18	mask.bmp	blankscreen.bmp	practice5.jpg	blankscreen.bmp	square.bmp
233	practice	practice_bottomright_same	11	614	18	mask.bmp	blankscreen.bmp	practice7.jpg	blankscreen.bmp	circle.bmp
233	practice	practice_bottomleft_same	12	559	18	mask.bmp	blankscreen.bmp	practice6.jpg	blankscreen.bmp	circle.bmp
233	real_a	real_bottomright_diff_a	1	749	18	mask.bmp	blankscreen.bmp	wmd1.bmp	blankscreen.bmp	square.bmp
233	real_a	real_topleft_same_a	2	681	23	mask.bmp	blankscreen.bmp	wfn4.bmp	blankscreen.bmp	circle.bmp
233	real_a	real_topright_same_a	3	567	18	mask.bmp	blankscreen.bmp	wmn4.bmp	blankscreen.bmp	circle.bmp
233	real_a	real_bottomleft_diff_a	4	674	18	mask.bmp	blankscreen.bmp	wfd3.bmp	blankscreen.bmp	square.bmp
233	real_a	real_topleft_same_a	5	609	23	mask.bmp	blankscreen.bmp	wfd4.bmp	blankscreen.bmp	circle.bmp
233	real_a	real_topleft_diff_a	6	642	23	mask.bmp	blankscreen.bmp	wfd1.bmp	blankscreen.bmp	square.bmp
233	real_a	real_bottomleft_diff_a	7	810	18	mask.bmp	blankscreen.bmp	wmn2.bmp	blankscreen.bmp	square.bmp
233	real_a	real_topleft_diff_a	8	722	18	mask.bmp	blankscreen.bmp	wmd2.bmp	blankscreen.bmp	square.bmp
233	real_a	real_bottomright_diff_a	9	1063	23	mask.bmp	blankscreen.bmp	wfn2.bmp	blankscreen.bmp	square.bmp
233	real_a	real_topright_diff_a	10	716	18	mask.bmp	blankscreen.bmp	wfd2.bmp	blankscreen.bmp	circle.bmp
233	real_a	real_bottomright_same_a	11	593	23	mask.bmp	blankscreen.bmp	wmd5.bmp	blankscreen.bmp	square.bmp
233	real_a	real_topleft_diff_a	12	531	23	mask.bmp	blankscreen.bmp	wfn3.bmp	blankscreen.bmp	square.bmp
233	real_a	real_bottomleft_same_a	13	904	18	mask.bmp	blankscreen.bmp	wfn5.bmp	blankscreen.bmp	circle.bmp
233	real_a	real_bottomleft_diff_a	14	621	23	mask.bmp	blankscreen.bmp	wfn1.bmp	blankscreen.bmp	circle.bmp
233	real_a	real_bottomleft_same_a	15	1030	23	mask.bmp	blankscreen.bmp	wmd4.bmp	blankscreen.bmp	square.bmp
233	real_a	real_bottomright_same_a	16	709	18	mask.bmp	blankscreen.bmp	wmn5.bmp	blankscreen.bmp	square.bmp
233	real_a	real_topright_diff_a	17	538	23	mask.bmp	blankscreen.bmp	wmn1.bmp	blankscreen.bmp	square.bmp
233	real_a	real_topright_same_a	18	614	23	mask.bmp	blankscreen.bmp	wfd5.bmp	blankscreen.bmp	square.bmp
233	real_a	real_bottomright_diff_a	19	799	18	mask.bmp	blankscreen.bmp	wmn3.bmp	blankscreen.bmp	square.bmp
233	real_a	real_topright_diff_a	20	609	23	mask.bmp	blankscreen.bmp	wmd3.bmp	blankscreen.bmp	square.bmp
233	real_b	real_bottomright_diff_b	1	675	23	mask.bmp	blankscreen.bmp	wfn8.bmp	blankscreen.bmp	square.bmp
233	real_b	real_bottomleft_diff_b	2	634	23	mask.bmp	blankscreen.bmp	wmn8.bmp	blankscreen.bmp	square.bmp
233	real_b	real_topleft_same_b	3	498	23	mask.bmp	blankscreen.bmp	wmn9.bmp	blankscreen.bmp	square.bmp
233	real_b	real_bottomright_same_b	4	608	23	mask.bmp	blankscreen.bmp	wfd10.bmp	blankscreen.bmp	square.bmp
233	real_b	real_bottomright_same_b	5	474	23	mask.bmp	blankscreen.bmp	wfn10.bmp	blankscreen.bmp	square.bmp
233	real_b	real_topright_diff_b	6	552	18	mask.bmp	blankscreen.bmp	wfn6.bmp	blankscreen.bmp	circle.bmp
233	real_b	real_topright_diff_b	7	653	23	mask.bmp	blankscreen.bmp	wfd8.bmp	blankscreen.bmp	square.bmp
233	real_b	real_topright_same_b	8	892	18	mask.bmp	blankscreen.bmp	wfn9.bmp	blankscreen.bmp	circle.bmp
233	real_b	real_bottomleft_diff_b	9	793	18	mask.bmp	blankscreen.bmp	wmd6.bmp	blankscreen.bmp	circle.bmp
233	real_b	real_bottomleft_same_b	10	554	18	mask.bmp	blankscreen.bmp	wfd9.bmp	blankscreen.bmp	circle.bmp
233	real_b	real_bottomleft_diff_b	11	654	18	mask.bmp	blankscreen.bmp	wfn7.bmp	blankscreen.bmp	circle.bmp
233	real_b	real_topleft_diff_b	12	597	18	mask.bmp	blankscreen.bmp	wfd7.bmp	blankscreen.bmp	circle.bmp
233	real_b	real_topleft_diff_b	13	438	18	mask.bmp	blankscreen.bmp	wmd8.bmp	blankscreen.bmp	circle.bmp
233	real_b	real_bottomright_diff_b	14	583	23	mask.bmp	blankscreen.bmp	wmd7.bmp	blankscreen.bmp	square.bmp
233	real_b	real_bottomright_diff_b	15	434	18	mask.bmp	blankscreen.bmp	wfd6.bmp	blankscreen.bmp	circle.bmp
233	real_b	real_bottomleft_same_b	16	507	18	mask.bmp	blankscreen.bmp	wmd10.bmp	blankscreen.bmp	circle.bmp
233	real_b	real_topleft_same_b	17	456	18	mask.bmp	blankscreen.bmp	wmd9.bmp	blankscreen.bmp	circle.bmp
233	real_b	real_topleft_diff_b	18	1640	18	mask.bmp	blankscreen.bmp	wmn6.bmp	blankscreen.bmp	circle.bmp
233	real_b	real_topright_diff_b	19	862	18	mask.bmp	blankscreen.bmp	wmn7.bmp	blankscreen.bmp	circle.bmp
233	real_b	real_topright_same_b	20	596	23	mask.bmp	blankscreen.bmp	wmn10.bmp	blankscreen.bmp	square.bmp
233	real_c	real_bottomright_same_c	1	464	18	mask.bmp	blankscreen.bmp	wmd2.bmp	blankscreen.bmp	circle.bmp
233	real_c	real_topright_same_c	2	632	18	mask.bmp	blankscreen.bmp	wfn2.bmp	blankscreen.bmp	circle.bmp
233	real_c	real_topleft_diff_c	3	680	18	mask.bmp	blankscreen.bmp	wfn4.bmp	blankscreen.bmp	circle.bmp
233	real_c	real_bottomleft_same_c	4	791	23	mask.bmp	blankscreen.bmp	wmn1.bmp	blankscreen.bmp	square.bmp
233	real_c	real_bottomleft_diff_c	5	528	18	mask.bmp	blankscreen.bmp	wfd4.bmp	blankscreen.bmp	circle.bmp
233	real_c	real_topleft_diff_c	6	997	23	mask.bmp	blankscreen.bmp	wmn5.bmp	blankscreen.bmp	square.bmp
233	real_c	real_bottomright_diff_c	7	510	18	mask.bmp	blankscreen.bmp	wmn4.bmp	blankscreen.bmp	circle.bmp
233	real_c	real_bottomright_diff_c	8	803	18	mask.bmp	blankscreen.bmp	wfd5.bmp	blankscreen.bmp	circle.bmp
233	real_c	real_topleft_same_c	9	685	23	mask.bmp	blankscreen.bmp	wfd1.bmp	blankscreen.bmp	square.bmp
233	real_c	real_topleft_diff_c	10	539	18	mask.bmp	blankscreen.bmp	wfd3.bmp	blankscreen.bmp	circle.bmp
233	real_c	real_topright_diff_c	11	1151	18	mask.bmp	blankscreen.bmp	wfn5.bmp	blankscreen.bmp	square.bmp
233	real_c	real_bottomright_diff_c	12	713	18	mask.bmp	blankscreen.bmp	wmd3.bmp	blankscreen.bmp	circle.bmp
233	real_c	real_bottomright_same_c	13	598	23	mask.bmp	blankscreen.bmp	wmn2.bmp	blankscreen.bmp	square.bmp
233	real_c	real_bottomleft_same_c	14	696	18	mask.bmp	blankscreen.bmp	wfd2.bmp	blankscreen.bmp	circle.bmp
233	real_c	real_bottomleft_diff_c	15	1022	23	mask.bmp	blankscreen.bmp	wfn3.bmp	blankscreen.bmp	square.bmp
233	real_c	real_topright_same_c	16	829	23	mask.bmp	blankscreen.bmp	wmd1.bmp	blankscreen.bmp	circle.bmp
233	real_c	real_bottomleft_diff_c	17	781	18	mask.bmp	blankscreen.bmp	wmd5.bmp	blankscreen.bmp	circle.bmp
233	real_c	real_topleft_same_c	18	687	18	mask.bmp	blankscreen.bmp	wfn1.bmp	blankscreen.bmp	circle.bmp
233	real_c	real_topright_diff_c	19	629	23	mask.bmp	blankscreen.bmp	wmd4.bmp	blankscreen.bmp	square.bmp
233	real_c	real_topright_diff_c	20	550	18	mask.bmp	blankscreen.bmp	wmn3.bmp	blankscreen.bmp	circle.bmp
233	real_d	real_bottomleft_diff_d	1	679	23	mask.bmp	blankscreen.bmp	wfd10.bmp	blankscreen.bmp	circle.bmp
233	real_d	real_topright_diff_d	2	813	23	mask.bmp	blankscreen.bmp	wmd10.bmp	blankscreen.bmp	square.bmp
233	real_d	real_bottomright_diff_d	3	638	23	mask.bmp	blankscreen.bmp	wfn9.bmp	blankscreen.bmp	square.bmp
233	real_d	real_bottomright_same_d	4	686	18	mask.bmp	blankscreen.bmp	wfn7.bmp	blankscreen.bmp	circle.bmp
233	real_d	real_topleft_same_d	5	788	18	mask.bmp	blankscreen.bmp	wmn6.bmp	blankscreen.bmp	circle.bmp
233	real_d	real_topleft_diff_d	6	565	23	mask.bmp	blankscreen.bmp	wfn10.bmp	blankscreen.bmp	circle.bmp
233	real_d	real_bottomleft_same_d	7	825	23	mask.bmp	blankscreen.bmp	wfn6.bmp	blankscreen.bmp	square.bmp
233	real_d	real_bottomright_diff_d	8	529	23	mask.bmp	blankscreen.bmp	wfd8.bmp	blankscreen.bmp	square.bmp
233	real_d	real_bottomleft_same_d	9	549	18	mask.bmp	blankscreen.bmp	wmn7.bmp	blankscreen.bmp	circle.bmp
233	real_d	real_topleft_diff_d	10	1121	18	mask.bmp	blankscreen.bmp	wmn8.bmp	blankscreen.bmp	circle.bmp
233	real_d	real_bottomleft_diff_d	11	589	23	mask.bmp	blankscreen.bmp	wmn9.bmp	blankscreen.bmp	square.bmp
233	real_d	real_topleft_same_d	12	807	18	mask.bmp	blankscreen.bmp	wmd6.bmp	blankscreen.bmp	circle.bmp
233	real_d	real_bottomright_same_d	13	648	23	mask.bmp	blankscreen.bmp	wfd7.bmp	blankscreen.bmp	square.bmp
233	real_d	real_topright_same_d	14	559	23	mask.bmp	blankscreen.bmp	wfd6.bmp	blankscreen.bmp	square.bmp
233	real_d	real_topleft_diff_d	15	635	23	mask.bmp	blankscreen.bmp	wmd9.bmp	blankscreen.bmp	circle.bmp
233	real_d	real_topright_same_d	16	580	18	mask.bmp	blankscreen.bmp	wmd7.bmp	blankscreen.bmp	circle.bmp
233	real_d	real_topright_diff_d	17	926	18	mask.bmp	blankscreen.bmp	wfn8.bmp	blankscreen.bmp	circle.bmp
233	real_d	real_topright_diff_d	18	506	18	mask.bmp	blankscreen.bmp	wfd9.bmp	blankscreen.bmp	circle.bmp
233	real_d	real_bottomright_diff_d	19	559	23	mask.bmp	blankscreen.bmp	wmn10.bmp	blankscreen.bmp	square.bmp
233	real_d	real_bottomleft_diff_d	20	515	23	mask.bmp	blankscreen.bmp	wmd8.bmp	blankscreen.bmp	square.bmp
235	practice	practice_bottomright_same	1	1608	18	mask.bmp	blankscreen.bmp	practice8.jpg	blankscreen.bmp	circle.bmp
235	practice	practice_topright_same	2	551	18	mask.bmp	blankscreen.bmp	practice4.jpg	blankscreen.bmp	circle.bmp
235	practice	practice_bottomright_diff	3	531	23	mask.bmp	blankscreen.bmp	practice12.jpg	blankscreen.bmp	square.bmp
235	practice	practice_topleft_same	4	728	18	mask.bmp	blankscreen.bmp	practice2.jpg	blankscreen.bmp	circle.bmp
235	practice	practice_bottomright_same	5	588	18	mask.bmp	blankscreen.bmp	practice7.jpg	blankscreen.bmp	circle.bmp
235	practice	practice_topright_same	6	454	18	mask.bmp	blankscreen.bmp	practice3.jpg	blankscreen.bmp	circle.bmp
235	practice	practice_topleft_same	7	750	18	mask.bmp	blankscreen.bmp	practice1.jpg	blankscreen.bmp	circle.bmp
235	practice	practice_bottomleft_same	8	393	18	mask.bmp	blankscreen.bmp	practice5.jpg	blankscreen.bmp	circle.bmp
235	practice	practice_bottomleft_diff	9	828	23	mask.bmp	blankscreen.bmp	practice11.jpg	blankscreen.bmp	square.bmp
235	practice	practice_topright_diff	10	588	18	mask.bmp	blankscreen.bmp	practice10.jpg	blankscreen.bmp	circle.bmp
235	practice	practice_bottomleft_same	11	758	23	mask.bmp	blankscreen.bmp	practice6.jpg	blankscreen.bmp	square.bmp
235	practice	practice_topleft_diff	12	769	18	mask.bmp	blankscreen.bmp	practice9.jpg	blankscreen.bmp	circle.bmp
235	real_a	real_bottomright_same_a	1	759	18	mask.bmp	blankscreen.bmp	wmn5.bmp	blankscreen.bmp	circle.bmp
235	real_a	real_bottomright_diff_a	2	1074	23	mask.bmp	blankscreen.bmp	wfn2.bmp	blankscreen.bmp	square.bmp
235	real_a	real_topleft_same_a	3	759	18	mask.bmp	blankscreen.bmp	wfd4.bmp	blankscreen.bmp	circle.bmp
235	real_a	real_bottomleft_diff_a	4	778	18	mask.bmp	blankscreen.bmp	wfd3.bmp	blankscreen.bmp	circle.bmp
235	real_a	real_bottomleft_diff_a	5	548	23	mask.bmp	blankscreen.bmp	wmn2.bmp	blankscreen.bmp	square.bmp
235	real_a	real_topright_diff_a	6	1048	23	mask.bmp	blankscreen.bmp	wfd2.bmp	blankscreen.bmp	square.bmp
235	real_a	real_topright_same_a	7	1215	23	mask.bmp	blankscreen.bmp	wmn4.bmp	blankscreen.bmp	square.bmp
235	real_a	real_topleft_diff_a	8	1270	18	mask.bmp	blankscreen.bmp	wmd2.bmp	blankscreen.bmp	circle.bmp
235	real_a	real_topright_same_a	9	1155	23	mask.bmp	blankscreen.bmp	wfd5.bmp	blankscreen.bmp	square.bmp
235	real_a	real_bottomleft_same_a	10	1206	18	mask.bmp	blankscreen.bmp	wfn5.bmp	blankscreen.bmp	circle.bmp
235	real_a	real_bottomleft_same_a	11	724	23	mask.bmp	blankscreen.bmp	wmd4.bmp	blankscreen.bmp	square.bmp
235	real_a	real_topleft_same_a	12	729	18	mask.bmp	blankscreen.bmp	wfn4.bmp	blankscreen.bmp	circle.bmp
235	real_a	real_bottomright_diff_a	13	917	23	mask.bmp	blankscreen.bmp	wmn3.bmp	blankscreen.bmp	square.bmp
235	real_a	real_topleft_diff_a	14	633	23	mask.bmp	blankscreen.bmp	wfn3.bmp	blankscreen.bmp	square.bmp
235	real_a	real_topright_diff_a	15	850	18	mask.bmp	blankscreen.bmp	wmn1.bmp	blankscreen.bmp	circle.bmp
235	real_a	real_topright_diff_a	16	1265	18	mask.bmp	blankscreen.bmp	wmd3.bmp	blankscreen.bmp	circle.bmp
235	real_a	real_topleft_diff_a	17	1302	18	mask.bmp	blankscreen.bmp	wfd1.bmp	blankscreen.bmp	circle.bmp
235	real_a	real_bottomright_diff_a	18	1306	18	mask.bmp	blankscreen.bmp	wmd1.bmp	blankscreen.bmp	circle.bmp
235	real_a	real_bottomleft_diff_a	19	477	23	mask.bmp	blankscreen.bmp	wfn1.bmp	blankscreen.bmp	square.bmp
235	real_a	real_bottomright_same_a	20	1212	18	mask.bmp	blankscreen.bmp	wmd5.bmp	blankscreen.bmp	circle.bmp
235	real_b	real_bottomleft_same_b	1	726	23	mask.bmp	blankscreen.bmp	wfd9.bmp	blankscreen.bmp	square.bmp
235	real_b	real_topleft_diff_b	2	753	23	mask.bmp	blankscreen.bmp	wfd7.bmp	blankscreen.bmp	square.bmp
235	real_b	real_bottomright_same_b	3	924	23	mask.bmp	blankscreen.bmp	wfd10.bmp	blankscreen.bmp	square.bmp
235	real_b	real_bottomright_same_b	4	552	23	mask.bmp	blankscreen.bmp	wfn10.bmp	blankscreen.bmp	square.bmp
235	real_b	real_topleft_diff_b	5	556	18	mask.bmp	blankscreen.bmp	wmd8.bmp	blankscreen.bmp	circle.bmp
235	real_b	real_bottomleft_same_b	6	991	23	mask.bmp	blankscreen.bmp	wmd10.bmp	blankscreen.bmp	square.bmp
235	real_b	real_bottomright_diff_b	7	640	18	mask.bmp	blankscreen.bmp	wmd7.bmp	blankscreen.bmp	circle.bmp
235	real_b	real_topright_same_b	8	608	23	mask.bmp	blankscreen.bmp	wfn9.bmp	blankscreen.bmp	circle.bmp
235	real_b	real_topleft_same_b	9	793	18	mask.bmp	blankscreen.bmp	wmd9.bmp	blankscreen.bmp	circle.bmp
235	real_b	real_bottomleft_diff_b	10	1202	18	mask.bmp	blankscreen.bmp	wmn8.bmp	blankscreen.bmp	circle.bmp
235	real_b	real_bottomleft_diff_b	11	506	18	mask.bmp	blankscreen.bmp	wmd6.bmp	blankscreen.bmp	circle.bmp
235	real_b	real_topright_same_b	12	544	18	mask.bmp	blankscreen.bmp	wmn10.bmp	blankscreen.bmp	circle.bmp
235	real_b	real_topright_diff_b	13	404	23	mask.bmp	blankscreen.bmp	wfn6.bmp	blankscreen.bmp	square.bmp
235	real_b	real_topleft_same_b	14	734	18	mask.bmp	blankscreen.bmp	wmn9.bmp	blankscreen.bmp	circle.bmp
235	real_b	real_topleft_diff_b	15	530	18	mask.bmp	blankscreen.bmp	wmn6.bmp	blankscreen.bmp	circle.bmp
235	real_b	real_bottomright_diff_b	16	591	23	mask.bmp	blankscreen.bmp	wfd6.bmp	blankscreen.bmp	square.bmp
235	real_b	real_topright_diff_b	17	769	18	mask.bmp	blankscreen.bmp	wmn7.bmp	blankscreen.bmp	circle.bmp
235	real_b	real_topright_diff_b	18	787	18	mask.bmp	blankscreen.bmp	wfd8.bmp	blankscreen.bmp	circle.bmp
235	real_b	real_bottomright_diff_b	19	597	23	mask.bmp	blankscreen.bmp	wfn8.bmp	blankscreen.bmp	square.bmp
235	real_b	real_bottomleft_diff_b	20	687	23	mask.bmp	blankscreen.bmp	wfn7.bmp	blankscreen.bmp	square.bmp
235	real_c	real_bottomright_diff_c	1	786	23	mask.bmp	blankscreen.bmp	wmn4.bmp	blankscreen.bmp	square.bmp
235	real_c	real_topright_same_c	2	509	18	mask.bmp	blankscreen.bmp	wmd1.bmp	blankscreen.bmp	circle.bmp
235	real_c	real_bottomright_diff_c	3	522	18	mask.bmp	blankscreen.bmp	wfd5.bmp	blankscreen.bmp	circle.bmp
235	real_c	real_topleft_diff_c	4	783	18	mask.bmp	blankscreen.bmp	wfn4.bmp	blankscreen.bmp	circle.bmp
235	real_c	real_bottomleft_same_c	5	601	23	mask.bmp	blankscreen.bmp	wfd2.bmp	blankscreen.bmp	square.bmp
235	real_c	real_topright_diff_c	6	875	18	mask.bmp	blankscreen.bmp	wmn3.bmp	blankscreen.bmp	circle.bmp
235	real_c	real_topleft_diff_c	7	600	18	mask.bmp	blankscreen.bmp	wmn5.bmp	blankscreen.bmp	circle.bmp
235	real_c	real_bottomright_diff_c	8	626	18	mask.bmp	blankscreen.bmp	wmd3.bmp	blankscreen.bmp	circle.bmp
235	real_c	real_topleft_diff_c	9	515	18	mask.bmp	blankscreen.bmp	wfd3.bmp	blankscreen.bmp	circle.bmp
235	real_c	real_bottomright_same_c	10	600	23	mask.bmp	blankscreen.bmp	wmd2.bmp	blankscreen.bmp	square.bmp
235	real_c	real_bottomleft_diff_c	11	634	18	mask.bmp	blankscreen.bmp	wmd5.bmp	blankscreen.bmp	square.bmp
235	real_c	real_bottomright_same_c	12	907	23	mask.bmp	blankscreen.bmp	wmn2.bmp	blankscreen.bmp	square.bmp
235	real_c	real_topleft_same_c	13	543	23	mask.bmp	blankscreen.bmp	wfn1.bmp	blankscreen.bmp	square.bmp
235	real_c	real_bottomleft_diff_c	14	563	23	mask.bmp	blankscreen.bmp	wfn3.bmp	blankscreen.bmp	square.bmp
235	real_c	real_bottomleft_same_c	15	599	23	mask.bmp	blankscreen.bmp	wmn1.bmp	blankscreen.bmp	square.bmp
235	real_c	real_bottomleft_diff_c	16	585	18	mask.bmp	blankscreen.bmp	wfd4.bmp	blankscreen.bmp	circle.bmp
235	real_c	real_topright_diff_c	17	572	18	mask.bmp	blankscreen.bmp	wfn5.bmp	blankscreen.bmp	circle.bmp
235	real_c	real_topright_same_c	18	806	23	mask.bmp	blankscreen.bmp	wfn2.bmp	blankscreen.bmp	square.bmp
235	real_c	real_topright_diff_c	19	647	23	mask.bmp	blankscreen.bmp	wmd4.bmp	blankscreen.bmp	square.bmp
235	real_c	real_topleft_same_c	20	1174	23	mask.bmp	blankscreen.bmp	wfd1.bmp	blankscreen.bmp	square.bmp
235	real_d	real_bottomleft_diff_d	1	752	23	mask.bmp	blankscreen.bmp	wmd8.bmp	blankscreen.bmp	square.bmp
235	real_d	real_bottomleft_same_d	2	547	23	mask.bmp	blankscreen.bmp	wfn6.bmp	blankscreen.bmp	square.bmp
235	real_d	real_bottomright_diff_d	3	519	18	mask.bmp	blankscreen.bmp	wfd8.bmp	blankscreen.bmp	circle.bmp
235	real_d	real_bottomright_diff_d	4	749	18	mask.bmp	blankscreen.bmp	wmn10.bmp	blankscreen.bmp	circle.bmp
235	real_d	real_topright_same_d	5	680	23	mask.bmp	blankscreen.bmp	wfd6.bmp	blankscreen.bmp	square.bmp
235	real_d	real_bottomleft_same_d	6	846	18	mask.bmp	blankscreen.bmp	wmn7.bmp	blankscreen.bmp	circle.bmp
235	real_d	real_topright_diff_d	7	1558	23	mask.bmp	blankscreen.bmp	wmd10.bmp	blankscreen.bmp	square.bmp
235	real_d	real_topleft_diff_d	8	550	18	mask.bmp	blankscreen.bmp	wfn10.bmp	blankscreen.bmp	circle.bmp
235	real_d	real_topleft_diff_d	9	538	23	mask.bmp	blankscreen.bmp	wmd9.bmp	blankscreen.bmp	square.bmp
235	real_d	real_bottomright_diff_d	10	671	18	mask.bmp	blankscreen.bmp	wfn9.bmp	blankscreen.bmp	circle.bmp
235	real_d	real_bottomleft_diff_d	11	494	23	mask.bmp	blankscreen.bmp	wmn9.bmp	blankscreen.bmp	square.bmp
235	real_d	real_bottomright_same_d	12	532	18	mask.bmp	blankscreen.bmp	wfn7.bmp	blankscreen.bmp	circle.bmp
235	real_d	real_bottomright_same_d	13	744	18	mask.bmp	blankscreen.bmp	wfd7.bmp	blankscreen.bmp	circle.bmp
235	real_d	real_bottomleft_diff_d	14	524	23	mask.bmp	blankscreen.bmp	wfd10.bmp	blankscreen.bmp	square.bmp
235	real_d	real_topright_diff_d	15	801	23	mask.bmp	blankscreen.bmp	wfn8.bmp	blankscreen.bmp	square.bmp
235	real_d	real_topleft_same_d	16	658	23	mask.bmp	blankscreen.bmp	wmn6.bmp	blankscreen.bmp	square.bmp
235	real_d	real_topright_diff_d	17	657	18	mask.bmp	blankscreen.bmp	wfd9.bmp	blankscreen.bmp	circle.bmp
235	real_d	real_topleft_same_d	18	616	23	mask.bmp	blankscreen.bmp	wmd6.bmp	blankscreen.bmp	square.bmp
235	real_d	real_topright_same_d	19	978	23	mask.bmp	blankscreen.bmp	wmd7.bmp	blankscreen.bmp	square.bmp
235	real_d	real_topleft_diff_d	20	603	18	mask.bmp	blankscreen.bmp	wmn8.bmp	blankscreen.bmp	circle.bmp
240	practice	practice_topleft_same	1	1838	23	mask.bmp	blankscreen.bmp	practice2.jpg	blankscreen.bmp	square.bmp
240	practice	practice_topleft_diff	2	947	18	mask.bmp	blankscreen.bmp	practice9.jpg	blankscreen.bmp	circle.bmp
240	practice	practice_topright_same	3	1414	23	mask.bmp	blankscreen.bmp	practice4.jpg	blankscreen.bmp	square.bmp
240	practice	practice_topright_diff	4	1125	23	mask.bmp	blankscreen.bmp	practice10.jpg	blankscreen.bmp	circle.bmp
240	practice	practice_topleft_same	5	744	23	mask.bmp	blankscreen.bmp	practice1.jpg	blankscreen.bmp	square.bmp
240	practice	practice_bottomleft_same	6	492	23	mask.bmp	blankscreen.bmp	practice6.jpg	blankscreen.bmp	square.bmp
240	practice	practice_bottomleft_diff	7	650	23	mask.bmp	blankscreen.bmp	practice11.jpg	blankscreen.bmp	circle.bmp
240	practice	practice_bottomright_same	8	698	18	mask.bmp	blankscreen.bmp	practice7.jpg	blankscreen.bmp	circle.bmp
240	practice	practice_bottomright_same	9	535	23	mask.bmp	blankscreen.bmp	practice8.jpg	blankscreen.bmp	square.bmp
240	practice	practice_topright_same	10	756	18	mask.bmp	blankscreen.bmp	practice3.jpg	blankscreen.bmp	circle.bmp
240	practice	practice_bottomright_diff	11	599	23	mask.bmp	blankscreen.bmp	practice12.jpg	blankscreen.bmp	circle.bmp
240	practice	practice_bottomleft_same	12	905	18	mask.bmp	blankscreen.bmp	practice5.jpg	blankscreen.bmp	circle.bmp
240	real_a	real_bottomleft_diff_a	1	1111	23	mask.bmp	blankscreen.bmp	wmn2.bmp	blankscreen.bmp	square.bmp
240	real_a	real_topright_diff_a	2	803	23	mask.bmp	blankscreen.bmp	wmn1.bmp	blankscreen.bmp	square.bmp
240	real_a	real_topleft_same_a	3	741	18	mask.bmp	blankscreen.bmp	wfd4.bmp	blankscreen.bmp	circle.bmp
240	real_a	real_bottomleft_same_a	4	1048	23	mask.bmp	blankscreen.bmp	wfn5.bmp	blankscreen.bmp	square.bmp
240	real_a	real_topleft_diff_a	5	846	18	mask.bmp	blankscreen.bmp	wfd1.bmp	blankscreen.bmp	circle.bmp
240	real_a	real_bottomright_diff_a	6	854	18	mask.bmp	blankscreen.bmp	wfn2.bmp	blankscreen.bmp	circle.bmp
240	real_a	real_topleft_diff_a	7	660	23	mask.bmp	blankscreen.bmp	wmd2.bmp	blankscreen.bmp	square.bmp
240	real_a	real_bottomleft_diff_a	8	603	18	mask.bmp	blankscreen.bmp	wfn1.bmp	blankscreen.bmp	circle.bmp
240	real_a	real_topright_same_a	9	397	23	mask.bmp	blankscreen.bmp	wmn4.bmp	blankscreen.bmp	square.bmp
240	real_a	real_topleft_diff_a	10	623	18	mask.bmp	blankscreen.bmp	wfn3.bmp	blankscreen.bmp	circle.bmp
240	real_a	real_bottomright_diff_a	11	663	23	mask.bmp	blankscreen.bmp	wmn3.bmp	blankscreen.bmp	circle.bmp
240	real_a	real_bottomleft_diff_a	12	695	18	mask.bmp	blankscreen.bmp	wfd3.bmp	blankscreen.bmp	square.bmp
240	real_a	real_bottomright_diff_a	13	588	23	mask.bmp	blankscreen.bmp	wmd1.bmp	blankscreen.bmp	square.bmp
240	real_a	real_bottomleft_same_a	14	543	23	mask.bmp	blankscreen.bmp	wmd4.bmp	blankscreen.bmp	square.bmp
240	real_a	real_topleft_same_a	15	802	23	mask.bmp	blankscreen.bmp	wfn4.bmp	blankscreen.bmp	square.bmp
240	real_a	real_topright_diff_a	16	532	18	mask.bmp	blankscreen.bmp	wfd2.bmp	blankscreen.bmp	circle.bmp
240	real_a	real_topright_same_a	17	672	23	mask.bmp	blankscreen.bmp	wfd5.bmp	blankscreen.bmp	square.bmp
240	real_a	real_bottomright_same_a	18	919	23	mask.bmp	blankscreen.bmp	wmd5.bmp	blankscreen.bmp	square.bmp
240	real_a	real_topright_diff_a	19	667	23	mask.bmp	blankscreen.bmp	wmd3.bmp	blankscreen.bmp	square.bmp
240	real_a	real_bottomright_same_a	20	570	18	mask.bmp	blankscreen.bmp	wmn5.bmp	blankscreen.bmp	circle.bmp
240	real_b	real_bottomleft_same_b	1	701	23	mask.bmp	blankscreen.bmp	wmd10.bmp	blankscreen.bmp	square.bmp
240	real_b	real_topleft_same_b	2	523	23	mask.bmp	blankscreen.bmp	wmn9.bmp	blankscreen.bmp	square.bmp
240	real_b	real_topleft_diff_b	3	512	18	mask.bmp	blankscreen.bmp	wmn6.bmp	blankscreen.bmp	circle.bmp
240	real_b	real_topright_same_b	4	525	23	mask.bmp	blankscreen.bmp	wmn10.bmp	blankscreen.bmp	square.bmp
240	real_b	real_topright_diff_b	5	722	18	mask.bmp	blankscreen.bmp	wmn7.bmp	blankscreen.bmp	square.bmp
240	real_b	real_topright_diff_b	6	686	23	mask.bmp	blankscreen.bmp	wfd8.bmp	blankscreen.bmp	square.bmp
240	real_b	real_topleft_same_b	7	774	18	mask.bmp	blankscreen.bmp	wmd9.bmp	blankscreen.bmp	circle.bmp
240	real_b	real_bottomleft_same_b	8	703	18	mask.bmp	blankscreen.bmp	wfd9.bmp	blankscreen.bmp	circle.bmp
240	real_b	real_bottomleft_diff_b	9	556	18	mask.bmp	blankscreen.bmp	wmn8.bmp	blankscreen.bmp	circle.bmp
240	real_b	real_bottomright_same_b	10	591	18	mask.bmp	blankscreen.bmp	wfd10.bmp	blankscreen.bmp	circle.bmp
240	real_b	real_topleft_diff_b	11	417	23	mask.bmp	blankscreen.bmp	wfd7.bmp	blankscreen.bmp	square.bmp
240	real_b	real_topleft_diff_b	12	563	23	mask.bmp	blankscreen.bmp	wmd8.bmp	blankscreen.bmp	square.bmp
240	real_b	real_bottomleft_diff_b	13	486	23	mask.bmp	blankscreen.bmp	wfn7.bmp	blankscreen.bmp	square.bmp
240	real_b	real_bottomright_diff_b	14	605	18	mask.bmp	blankscreen.bmp	wfd6.bmp	blankscreen.bmp	circle.bmp
240	real_b	real_bottomright_diff_b	15	686	23	mask.bmp	blankscreen.bmp	wmd7.bmp	blankscreen.bmp	circle.bmp
240	real_b	real_topright_diff_b	16	636	18	mask.bmp	blankscreen.bmp	wfn6.bmp	blankscreen.bmp	circle.bmp
240	real_b	real_topright_same_b	17	764	23	mask.bmp	blankscreen.bmp	wfn9.bmp	blankscreen.bmp	square.bmp
240	real_b	real_bottomleft_diff_b	18	615	18	mask.bmp	blankscreen.bmp	wmd6.bmp	blankscreen.bmp	circle.bmp
240	real_b	real_bottomright_diff_b	19	1328	23	mask.bmp	blankscreen.bmp	wfn8.bmp	blankscreen.bmp	square.bmp
240	real_b	real_bottomright_same_b	20	570	23	mask.bmp	blankscreen.bmp	wfn10.bmp	blankscreen.bmp	square.bmp
240	real_c	real_topright_diff_c	1	666	23	mask.bmp	blankscreen.bmp	wfn5.bmp	blankscreen.bmp	square.bmp
240	real_c	real_bottomleft_diff_c	2	514	23	mask.bmp	blankscreen.bmp	wmd5.bmp	blankscreen.bmp	square.bmp
240	real_c	real_bottomright_same_c	3	591	18	mask.bmp	blankscreen.bmp	wmn2.bmp	blankscreen.bmp	circle.bmp
240	real_c	real_bottomright_diff_c	4	553	18	mask.bmp	blankscreen.bmp	wmn4.bmp	blankscreen.bmp	circle.bmp
240	real_c	real_topright_diff_c	5	757	18	mask.bmp	blankscreen.bmp	wmn3.bmp	blankscreen.bmp	circle.bmp
240	real_c	real_topright_same_c	6	528	23	mask.bmp	blankscreen.bmp	wmd1.bmp	blankscreen.bmp	square.bmp
240	real_c	real_topright_diff_c	7	629	23	mask.bmp	blankscreen.bmp	wmd4.bmp	blankscreen.bmp	square.bmp
240	real_c	real_topleft_diff_c	8	829	23	mask.bmp	blankscreen.bmp	wfd3.bmp	blankscreen.bmp	square.bmp
240	real_c	real_topright_same_c	9	925	23	mask.bmp	blankscreen.bmp	wfn2.bmp	blankscreen.bmp	square.bmp
240	real_c	real_bottomleft_diff_c	10	585	23	mask.bmp	blankscreen.bmp	wfd4.bmp	blankscreen.bmp	square.bmp
240	real_c	real_topleft_same_c	11	507	23	mask.bmp	blankscreen.bmp	wfn1.bmp	blankscreen.bmp	square.bmp
240	real_c	real_bottomleft_same_c	12	513	23	mask.bmp	blankscreen.bmp	wmn1.bmp	blankscreen.bmp	square.bmp
240	real_c	real_bottomright_same_c	13	662	18	mask.bmp	blankscreen.bmp	wmd2.bmp	blankscreen.bmp	circle.bmp
240	real_c	real_topleft_diff_c	14	582	23	mask.bmp	blankscreen.bmp	wfn4.bmp	blankscreen.bmp	square.bmp
240	real_c	real_bottomright_diff_c	15	1392	18	mask.bmp	blankscreen.bmp	wmd3.bmp	blankscreen.bmp	circle.bmp
240	real_c	real_bottomright_diff_c	16	488	23	mask.bmp	blankscreen.bmp	wfd5.bmp	blankscreen.bmp	square.bmp
240	real_c	real_topleft_diff_c	17	646	23	mask.bmp	blankscreen.bmp	wmn5.bmp	blankscreen.bmp	square.bmp
240	real_c	real_topleft_same_c	18	566	23	mask.bmp	blankscreen.bmp	wfd1.bmp	blankscreen.bmp	square.bmp
240	real_c	real_bottomleft_diff_c	19	513	23	mask.bmp	blankscreen.bmp	wfn3.bmp	blankscreen.bmp	square.bmp
240	real_c	real_bottomleft_same_c	20	559	23	mask.bmp	blankscreen.bmp	wfd2.bmp	blankscreen.bmp	square.bmp
240	real_d	real_bottomleft_diff_d	1	752	18	mask.bmp	blankscreen.bmp	wmn9.bmp	blankscreen.bmp	circle.bmp
240	real_d	real_topleft_diff_d	2	668	18	mask.bmp	blankscreen.bmp	wmn8.bmp	blankscreen.bmp	circle.bmp
240	real_d	real_topright_diff_d	3	483	18	mask.bmp	blankscreen.bmp	wfn8.bmp	blankscreen.bmp	circle.bmp
240	real_d	real_topright_diff_d	4	483	23	mask.bmp	blankscreen.bmp	wmd10.bmp	blankscreen.bmp	square.bmp
240	real_d	real_bottomright_same_d	5	585	18	mask.bmp	blankscreen.bmp	wfd7.bmp	blankscreen.bmp	circle.bmp
240	real_d	real_topright_same_d	6	596	23	mask.bmp	blankscreen.bmp	wfd6.bmp	blankscreen.bmp	square.bmp
240	real_d	real_bottomleft_diff_d	7	541	18	mask.bmp	blankscreen.bmp	wmd8.bmp	blankscreen.bmp	circle.bmp
240	real_d	real_bottomright_diff_d	8	642	23	mask.bmp	blankscreen.bmp	wfd8.bmp	blankscreen.bmp	square.bmp
240	real_d	real_topleft_same_d	9	833	23	mask.bmp	blankscreen.bmp	wmd6.bmp	blankscreen.bmp	square.bmp
240	real_d	real_topright_diff_d	10	665	23	mask.bmp	blankscreen.bmp	wfd9.bmp	blankscreen.bmp	square.bmp
240	real_d	real_bottomright_same_d	11	465	23	mask.bmp	blankscreen.bmp	wfn7.bmp	blankscreen.bmp	square.bmp
240	real_d	real_topleft_diff_d	12	544	23	mask.bmp	blankscreen.bmp	wfn10.bmp	blankscreen.bmp	square.bmp
240	real_d	real_bottomleft_diff_d	13	372	23	mask.bmp	blankscreen.bmp	wfd10.bmp	blankscreen.bmp	square.bmp
240	real_d	real_bottomright_diff_d	14	520	23	mask.bmp	blankscreen.bmp	wfn9.bmp	blankscreen.bmp	square.bmp
240	real_d	real_bottomright_diff_d	15	526	18	mask.bmp	blankscreen.bmp	wmn10.bmp	blankscreen.bmp	circle.bmp
240	real_d	real_topleft_same_d	16	650	18	mask.bmp	blankscreen.bmp	wmn6.bmp	blankscreen.bmp	circle.bmp
240	real_d	real_bottomleft_same_d	17	434	23	mask.bmp	blankscreen.bmp	wfn6.bmp	blankscreen.bmp	square.bmp
240	real_d	real_topright_same_d	18	427	23	mask.bmp	blankscreen.bmp	wmd7.bmp	blankscreen.bmp	square.bmp
240	real_d	real_topleft_diff_d	19	468	23	mask.bmp	blankscreen.bmp	wmd9.bmp	blankscreen.bmp	square.bmp
240	real_d	real_bottomleft_same_d	20	588	18	mask.bmp	blankscreen.bmp	wmn7.bmp	blankscreen.bmp	circle.bmp
250	practice	practice_topright_same	1	1709	18	mask.bmp	blankscreen.bmp	practice3.jpg	blankscreen.bmp	circle.bmp
250	practice	practice_topleft_diff	2	1111	23	mask.bmp	blankscreen.bmp	practice9.jpg	blankscreen.bmp	square.bmp
250	practice	practice_topleft_same	3	738	23	mask.bmp	blankscreen.bmp	practice2.jpg	blankscreen.bmp	square.bmp
250	practice	practice_bottomleft_same	4	662	23	mask.bmp	blankscreen.bmp	practice6.jpg	blankscreen.bmp	square.bmp
250	practice	practice_bottomright_diff	5	837	18	mask.bmp	blankscreen.bmp	practice12.jpg	blankscreen.bmp	circle.bmp
250	practice	practice_bottomleft_diff	6	852	23	mask.bmp	blankscreen.bmp	practice11.jpg	blankscreen.bmp	square.bmp
250	practice	practice_topright_diff	7	931	23	mask.bmp	blankscreen.bmp	practice10.jpg	blankscreen.bmp	square.bmp
250	practice	practice_bottomleft_same	8	863	18	mask.bmp	blankscreen.bmp	practice5.jpg	blankscreen.bmp	circle.bmp
250	practice	practice_topleft_same	9	486	18	mask.bmp	blankscreen.bmp	practice1.jpg	blankscreen.bmp	circle.bmp
250	practice	practice_bottomright_same	10	414	23	mask.bmp	blankscreen.bmp	practice8.jpg	blankscreen.bmp	square.bmp
250	practice	practice_bottomright_same	11	430	23	mask.bmp	blankscreen.bmp	practice7.jpg	blankscreen.bmp	square.bmp
250	practice	practice_topright_same	12	335	23	mask.bmp	blankscreen.bmp	practice4.jpg	blankscreen.bmp	square.bmp
250	real_a	real_topleft_diff_a	1	822	18	mask.bmp	blankscreen.bmp	wfn3.bmp	blankscreen.bmp	circle.bmp
250	real_a	real_bottomright_diff_a	2	581	23	mask.bmp	blankscreen.bmp	wfn2.bmp	blankscreen.bmp	square.bmp
250	real_a	real_bottomright_diff_a	3	704	23	mask.bmp	blankscreen.bmp	wmd1.bmp	blankscreen.bmp	square.bmp
250	real_a	real_topleft_diff_a	4	1173	18	mask.bmp	blankscreen.bmp	wmd2.bmp	blankscreen.bmp	circle.bmp
250	real_a	real_bottomright_same_a	5	709	23	mask.bmp	blankscreen.bmp	wmd5.bmp	blankscreen.bmp	square.bmp
250	real_a	real_bottomleft_same_a	6	818	18	mask.bmp	blankscreen.bmp	wmd4.bmp	blankscreen.bmp	circle.bmp
250	real_a	real_bottomleft_diff_a	7	1091	18	mask.bmp	blankscreen.bmp	wfd3.bmp	blankscreen.bmp	circle.bmp
250	real_a	real_bottomright_same_a	8	640	18	mask.bmp	blankscreen.bmp	wmn5.bmp	blankscreen.bmp	circle.bmp
250	real_a	real_topright_diff_a	9	575	23	mask.bmp	blankscreen.bmp	wmd3.bmp	blankscreen.bmp	square.bmp
250	real_a	real_bottomleft_diff_a	10	682	18	mask.bmp	blankscreen.bmp	wfn1.bmp	blankscreen.bmp	circle.bmp
