subject	blockcode	trialcode	trialnum	latency	response	stimulusitem1	stimulusitem2	stimulusitem3	stimulusitem4	stimulusitem5
9994	practice	practice_topright_diff	1	938	23	mask.bmp	blankscreen.bmp	practice10.jpg	blankscreen.bmp	square.bmp
9994	practice	practice_bottomright_same	2	672	23	mask.bmp	blankscreen.bmp	practice8.jpg	blankscreen.bmp	square.bmp
9994	practice	practice_bottomright_same	3	1416	23	mask.bmp	blankscreen.bmp	practice7.jpg	blankscreen.bmp	square.bmp
9994	practice	practice_topleft_same	4	651	23	mask.bmp	blankscreen.bmp	practice2.jpg	blankscreen.bmp	square.bmp
9994	practice	practice_topleft_same	5	532	23	mask.bmp	blankscreen.bmp	practice1.jpg	blankscreen.bmp	square.bmp
9994	practice	practice_bottomleft_diff	6	610	23	mask.bmp	blankscreen.bmp	practice11.jpg	blankscreen.bmp	square.bmp
9994	practice	practice_topright_same	7	509	23	mask.bmp	blankscreen.bmp	practice4.jpg	blankscreen.bmp	square.bmp
9994	practice	practice_bottomleft_same	8	716	18	mask.bmp	blankscreen.bmp	practice5.jpg	blankscreen.bmp	circle.bmp
9994	practice	practice_bottomleft_same	9	555	18	mask.bmp	blankscreen.bmp	practice6.jpg	blankscreen.bmp	circle.bmp
9994	practice	practice_bottomright_diff	10	816	23	mask.bmp	blankscreen.bmp	practice12.jpg	blankscreen.bmp	square.bmp
9994	practice	practice_topleft_diff	11	835	18	mask.bmp	blankscreen.bmp	practice9.jpg	blankscreen.bmp	circle.bmp
9994	practice	practice_topright_same	12	765	18	mask.bmp	blankscreen.bmp	practice3.jpg	blankscreen.bmp	circle.bmp
9994	real_a	real_topleft_diff_a	1	1525	18	mask.bmp	blankscreen.bmp	wmd2.bmp	blankscreen.bmp	circle.bmp
9994	real_a	real_topleft_same_a	2	484	18	mask.bmp	blankscreen.bmp	wfd4.bmp	blankscreen.bmp	circle.bmp
9994	real_a	real_topleft_diff_a	3	611	23	mask.bmp	blankscreen.bmp	wfd1.bmp	blankscreen.bmp	square.bmp
9994	real_a	real_bottomright_same_a	4	518	23	mask.bmp	blankscreen.bmp	wmd5.bmp	blankscreen.bmp	square.bmp
9994	real_a	real_topleft_diff_a	5	660	18	mask.bmp	blankscreen.bmp	wfn3.bmp	blankscreen.bmp	circle.bmp
9994	real_a	real_bottomright_diff_a	6	645	23	mask.bmp	blankscreen.bmp	wmd1.bmp	blankscreen.bmp	square.bmp
9994	real_a	real_bottomright_diff_a	7	647	18	mask.bmp	blankscreen.bmp	wfn2.bmp	blankscreen.bmp	circle.bmp
9994	real_a	real_topleft_same_a	8	488	18	mask.bmp	blankscreen.bmp	wfn4.bmp	blankscreen.bmp	circle.bmp
9994	real_a	real_topright_diff_a	9	575	18	mask.bmp	blankscreen.bmp	wmd3.bmp	blankscreen.bmp	circle.bmp
9994	real_a	real_bottomright_same_a	10	612	18	mask.bmp	blankscreen.bmp	wmn5.bmp	blankscreen.bmp	circle.bmp
9994	real_a	real_bottomleft_diff_a	11	1167	23	mask.bmp	blankscreen.bmp	wfn1.bmp	blankscreen.bmp	square.bmp
9994	real_a	real_topright_diff_a	12	1267	23	mask.bmp	blankscreen.bmp	wfd2.bmp	blankscreen.bmp	square.bmp
9994	real_a	real_bottomleft_diff_a	13	668	18	mask.bmp	blankscreen.bmp	wmn2.bmp	blankscreen.bmp	circle.bmp
9994	real_a	real_bottomleft_diff_a	14	1324	23	mask.bmp	blankscreen.bmp	wfd3.bmp	blankscreen.bmp	square.bmp
9994	real_a	real_topright_same_a	15	867	18	mask.bmp	blankscreen.bmp	wmn4.bmp	blankscreen.bmp	circle.bmp
9994	real_a	real_bottomleft_same_a	16	1059	18	mask.bmp	blankscreen.bmp	wmd4.bmp	blankscreen.bmp	circle.bmp
9994	real_a	real_bottomleft_same_a	17	1493	23	mask.bmp	blankscreen.bmp	wfn5.bmp	blankscreen.bmp	square.bmp
9994	real_a	real_topright_diff_a	18	1381	18	mask.bmp	blankscreen.bmp	wmn1.bmp	blankscreen.bmp	circle.bmp
9994	real_a	real_topright_same_a	19	1424	23	mask.bmp	blankscreen.bmp	wfd5.bmp	blankscreen.bmp	square.bmp
9994	real_a	real_bottomright_diff_a	20	907	18	mask.bmp	blankscreen.bmp	wmn3.bmp	blankscreen.bmp	circle.bmp
9994	real_b	real_bottomright_diff_b	1	759	18	mask.bmp	blankscreen.bmp	wmd7.bmp	blankscreen.bmp	circle.bmp
9994	real_b	real_bottomleft_diff_b	2	693	23	mask.bmp	blankscreen.bmp	wmn8.bmp	blankscreen.bmp	square.bmp
9994	real_b	real_bottomleft_same_b	3	621	23	mask.bmp	blankscreen.bmp	wfd9.bmp	blankscreen.bmp	square.bmp
9994	real_b	real_bottomleft_same_b	4	583	18	mask.bmp	blankscreen.bmp	wmd10.bmp	blankscreen.bmp	circle.bmp
9994	real_b	real_topleft_diff_b	5	1027	23	mask.bmp	blankscreen.bmp	wmd8.bmp	blankscreen.bmp	square.bmp
9994	real_b	real_bottomright_diff_b	6	957	23	mask.bmp	blankscreen.bmp	wfn8.bmp	blankscreen.bmp	square.bmp
9994	real_b	real_topleft_diff_b	7	722	23	mask.bmp	blankscreen.bmp	wmn6.bmp	blankscreen.bmp	square.bmp
9994	real_b	real_bottomleft_diff_b	8	937	18	mask.bmp	blankscreen.bmp	wmd6.bmp	blankscreen.bmp	circle.bmp
9994	real_b	real_topright_diff_b	9	831	18	mask.bmp	blankscreen.bmp	wfn6.bmp	blankscreen.bmp	circle.bmp
9994	real_b	real_topright_diff_b	10	689	23	mask.bmp	blankscreen.bmp	wmn7.bmp	blankscreen.bmp	square.bmp
9994	real_b	real_topleft_same_b	11	553	18	mask.bmp	blankscreen.bmp	wmn9.bmp	blankscreen.bmp	circle.bmp
9994	real_b	real_topright_same_b	12	622	23	mask.bmp	blankscreen.bmp	wfn9.bmp	blankscreen.bmp	square.bmp
9994	real_b	real_topright_same_b	13	488	23	mask.bmp	blankscreen.bmp	wmn10.bmp	blankscreen.bmp	square.bmp
9994	real_b	real_bottomright_same_b	14	632	18	mask.bmp	blankscreen.bmp	wfd10.bmp	blankscreen.bmp	circle.bmp
9994	real_b	real_bottomright_diff_b	15	826	23	mask.bmp	blankscreen.bmp	wfd6.bmp	blankscreen.bmp	square.bmp
9994	real_b	real_bottomright_same_b	16	612	23	mask.bmp	blankscreen.bmp	wfn10.bmp	blankscreen.bmp	square.bmp
9994	real_b	real_topleft_same_b	17	576	23	mask.bmp	blankscreen.bmp	wmd9.bmp	blankscreen.bmp	square.bmp
9994	real_b	real_topleft_diff_b	18	668	18	mask.bmp	blankscreen.bmp	wfd7.bmp	blankscreen.bmp	circle.bmp
9994	real_b	real_bottomleft_diff_b	19	757	23	mask.bmp	blankscreen.bmp	wfn7.bmp	blankscreen.bmp	square.bmp
9994	real_b	real_topright_diff_b	20	842	23	mask.bmp	blankscreen.bmp	wfd8.bmp	blankscreen.bmp	square.bmp
9994	real_c	real_topright_diff_c	1	1528	23	mask.bmp	blankscreen.bmp	wmn3.bmp	blankscreen.bmp	square.bmp
9994	real_c	real_topright_diff_c	2	814	18	mask.bmp	blankscreen.bmp	wfn5.bmp	blankscreen.bmp	circle.bmp
9994	real_c	real_topleft_same_c	3	1049	23	mask.bmp	blankscreen.bmp	wfn1.bmp	blankscreen.bmp	square.bmp
9994	real_c	real_topleft_same_c	4	1474	23	mask.bmp	blankscreen.bmp	wfd1.bmp	blankscreen.bmp	square.bmp
9994	real_c	real_bottomleft_same_c	5	539	18	mask.bmp	blankscreen.bmp	wmn1.bmp	blankscreen.bmp	circle.bmp
9994	real_c	real_bottomright_diff_c	6	897	18	mask.bmp	blankscreen.bmp	wmn4.bmp	blankscreen.bmp	circle.bmp
9994	real_c	real_bottomleft_diff_c	7	848	23	mask.bmp	blankscreen.bmp	wfn3.bmp	blankscreen.bmp	square.bmp
9994	real_c	real_topright_same_c	8	905	23	mask.bmp	blankscreen.bmp	wfn2.bmp	blankscreen.bmp	square.bmp
9994	real_c	real_bottomright_diff_c	9	704	23	mask.bmp	blankscreen.bmp	wmd3.bmp	blankscreen.bmp	square.bmp
9994	real_c	real_topright_same_c	10	607	23	mask.bmp	blankscreen.bmp	wmd1.bmp	blankscreen.bmp	square.bmp
9994	real_c	real_bottomright_same_c	11	699	18	mask.bmp	blankscreen.bmp	wmd2.bmp	blankscreen.bmp	circle.bmp
9994	real_c	real_topleft_diff_c	12	1353	23	mask.bmp	blankscreen.bmp	wfd3.bmp	blankscreen.bmp	square.bmp
9994	real_c	real_bottomleft_same_c	13	655	18	mask.bmp	blankscreen.bmp	wfd2.bmp	blankscreen.bmp	circle.bmp
9994	real_c	real_topleft_diff_c	14	1104	18	mask.bmp	blankscreen.bmp	wfn4.bmp	blankscreen.bmp	circle.bmp
9994	real_c	real_topright_diff_c	15	1247	23	mask.bmp	blankscreen.bmp	wmd4.bmp	blankscreen.bmp	square.bmp
9994	real_c	real_bottomright_diff_c	16	864	18	mask.bmp	blankscreen.bmp	wfd5.bmp	blankscreen.bmp	circle.bmp
9994	real_c	real_bottomleft_diff_c	17	809	18	mask.bmp	blankscreen.bmp	wfd4.bmp	blankscreen.bmp	circle.bmp
9994	real_c	real_bottomright_same_c	18	692	23	mask.bmp	blankscreen.bmp	wmn2.bmp	blankscreen.bmp	square.bmp
9994	real_c	real_topleft_diff_c	19	916	23	mask.bmp	blankscreen.bmp	wmn5.bmp	blankscreen.bmp	square.bmp
9994	real_c	real_bottomleft_diff_c	20	811	18	mask.bmp	blankscreen.bmp	wmd5.bmp	blankscreen.bmp	circle.bmp
9994	real_d	real_topright_same_d	1	1542	23	mask.bmp	blankscreen.bmp	wfd6.bmp	blankscreen.bmp	square.bmp
9994	real_d	real_topright_diff_d	2	1084	23	mask.bmp	blankscreen.bmp	wfn8.bmp	blankscreen.bmp	square.bmp
9994	real_d	real_topright_same_d	3	715	23	mask.bmp	blankscreen.bmp	wmd7.bmp	blankscreen.bmp	square.bmp
9994	real_d	real_topleft_diff_d	4	898	18	mask.bmp	blankscreen.bmp	wmn8.bmp	blankscreen.bmp	circle.bmp
9994	real_d	real_bottomright_same_d	5	745	23	mask.bmp	blankscreen.bmp	wfd7.bmp	blankscreen.bmp	square.bmp
9994	real_d	real_bottomleft_diff_d	6	1631	23	mask.bmp	blankscreen.bmp	wmd8.bmp	blankscreen.bmp	square.bmp
9994	real_d	real_bottomleft_diff_d	7	1001	18	mask.bmp	blankscreen.bmp	wmn9.bmp	blankscreen.bmp	circle.bmp
9994	real_d	real_bottomleft_diff_d	8	972	23	mask.bmp	blankscreen.bmp	wfd10.bmp	blankscreen.bmp	square.bmp
9994	real_d	real_bottomleft_same_d	9	769	18	mask.bmp	blankscreen.bmp	wmn7.bmp	blankscreen.bmp	circle.bmp
9994	real_d	real_topright_diff_d	10	629	18	mask.bmp	blankscreen.bmp	wfd9.bmp	blankscreen.bmp	circle.bmp
9994	real_d	real_bottomright_diff_d	11	1639	23	mask.bmp	blankscreen.bmp	wfd8.bmp	blankscreen.bmp	square.bmp
9994	real_d	real_topleft_diff_d	12	641	23	mask.bmp	blankscreen.bmp	wmd9.bmp	blankscreen.bmp	square.bmp
9994	real_d	real_bottomleft_same_d	13	651	23	mask.bmp	blankscreen.bmp	wfn6.bmp	blankscreen.bmp	square.bmp
9994	real_d	real_bottomright_diff_d	14	1900	18	mask.bmp	blankscreen.bmp	wfn9.bmp	blankscreen.bmp	circle.bmp
9994	real_d	real_topleft_same_d	15	851	23	mask.bmp	blankscreen.bmp	wmd6.bmp	blankscreen.bmp	square.bmp
9994	real_d	real_topleft_same_d	16	677	18	mask.bmp	blankscreen.bmp	wmn6.bmp	blankscreen.bmp	circle.bmp
9994	real_d	real_topleft_diff_d	17	1885	18	mask.bmp	blankscreen.bmp	wfn10.bmp	blankscreen.bmp	circle.bmp
9994	real_d	real_bottomright_same_d	18	661	23	mask.bmp	blankscreen.bmp	wfn7.bmp	blankscreen.bmp	square.bmp
9994	real_d	real_bottomright_diff_d	19	950	23	mask.bmp	blankscreen.bmp	wmn10.bmp	blankscreen.bmp	square.bmp
9994	real_d	real_topright_diff_d	20	1364	18	mask.bmp	blankscreen.bmp	wmd10.bmp	blankscreen.bmp	circle.bmp
7	practice	practice_bottomright_same	1	120	18	mask.bmp	blankscreen.bmp	practice7.jpg	blankscreen.bmp	circle.bmp
7	practice	practice_bottomleft_diff	2	398	23	mask.bmp	blankscreen.bmp	practice11.jpg	blankscreen.bmp	square.bmp
7	practice	practice_bottomright_same	3	434	18	mask.bmp	blankscreen.bmp	practice8.jpg	blankscreen.bmp	square.bmp
7	practice	practice_topright_same	4	427	18	mask.bmp	blankscreen.bmp	practice4.jpg	blankscreen.bmp	circle.bmp
7	practice	practice_topright_same	5	382	18	mask.bmp	blankscreen.bmp	practice3.jpg	blankscreen.bmp	circle.bmp
7	practice	practice_bottomleft_same	6	562	18	mask.bmp	blankscreen.bmp	practice5.jpg	blankscreen.bmp	circle.bmp
7	practice	practice_topleft_diff	7	615	18	mask.bmp	blankscreen.bmp	practice9.jpg	blankscreen.bmp	circle.bmp
7	practice	practice_topleft_same	8	361	23	mask.bmp	blankscreen.bmp	practice1.jpg	blankscreen.bmp	square.bmp
7	practice	practice_bottomleft_same	9	558	23	mask.bmp	blankscreen.bmp	practice6.jpg	blankscreen.bmp	square.bmp
7	practice	practice_bottomright_diff	10	444	18	mask.bmp	blankscreen.bmp	practice12.jpg	blankscreen.bmp	circle.bmp
7	practice	practice_topleft_same	11	333	23	mask.bmp	blankscreen.bmp	practice2.jpg	blankscreen.bmp	square.bmp
7	practice	practice_topright_diff	12	491	23	mask.bmp	blankscreen.bmp	practice10.jpg	blankscreen.bmp	square.bmp
7	real_a	real_topleft_diff_a	1	431	18	mask.bmp	blankscreen.bmp	wfn3.bmp	blankscreen.bmp	circle.bmp
7	real_a	real_bottomright_diff_a	2	424	18	mask.bmp	blankscreen.bmp	wmn3.bmp	blankscreen.bmp	circle.bmp
7	real_a	real_bottomleft_diff_a	3	483	18	mask.bmp	blankscreen.bmp	wfn1.bmp	blankscreen.bmp	circle.bmp
7	real_a	real_topright_diff_a	4	563	23	mask.bmp	blankscreen.bmp	wmn1.bmp	blankscreen.bmp	square.bmp
7	real_a	real_bottomright_same_a	5	439	18	mask.bmp	blankscreen.bmp	wmd5.bmp	blankscreen.bmp	circle.bmp
7	real_a	real_bottomleft_same_a	6	433	23	mask.bmp	blankscreen.bmp	wfn5.bmp	blankscreen.bmp	square.bmp
7	real_a	real_topleft_same_a	7	419	18	mask.bmp	blankscreen.bmp	wfd4.bmp	blankscreen.bmp	circle.bmp
7	real_a	real_topright_same_a	8	365	23	mask.bmp	blankscreen.bmp	wfd5.bmp	blankscreen.bmp	square.bmp
7	real_a	real_bottomright_diff_a	9	490	23	mask.bmp	blankscreen.bmp	wmd1.bmp	blankscreen.bmp	square.bmp
7	real_a	real_topleft_diff_a	10	450	23	mask.bmp	blankscreen.bmp	wmd2.bmp	blankscreen.bmp	square.bmp
7	real_a	real_topright_same_a	11	475	23	mask.bmp	blankscreen.bmp	wmn4.bmp	blankscreen.bmp	square.bmp
7	real_a	real_topleft_diff_a	12	587	18	mask.bmp	blankscreen.bmp	wfd1.bmp	blankscreen.bmp	circle.bmp
7	real_a	real_bottomright_same_a	13	567	18	mask.bmp	blankscreen.bmp	wmn5.bmp	blankscreen.bmp	circle.bmp
7	real_a	real_topleft_same_a	14	475	23	mask.bmp	blankscreen.bmp	wfn4.bmp	blankscreen.bmp	square.bmp
7	real_a	real_topright_diff_a	15	484	18	mask.bmp	blankscreen.bmp	wfd2.bmp	blankscreen.bmp	circle.bmp
7	real_a	real_bottomleft_same_a	16	428	18	mask.bmp	blankscreen.bmp	wmd4.bmp	blankscreen.bmp	circle.bmp
7	real_a	real_bottomright_diff_a	17	486	18	mask.bmp	blankscreen.bmp	wfn2.bmp	blankscreen.bmp	circle.bmp
7	real_a	real_bottomleft_diff_a	18	470	23	mask.bmp	blankscreen.bmp	wmn2.bmp	blankscreen.bmp	square.bmp
7	real_a	real_bottomleft_diff_a	19	486	23	mask.bmp	blankscreen.bmp	wfd3.bmp	blankscreen.bmp	square.bmp
7	real_a	real_topright_diff_a	20	598	23	mask.bmp	blankscreen.bmp	wmd3.bmp	blankscreen.bmp	square.bmp
7	real_b	real_topright_diff_b	1	719	18	mask.bmp	blankscreen.bmp	wfd8.bmp	blankscreen.bmp	circle.bmp
7	real_b	real_bottomleft_diff_b	2	534	18	mask.bmp	blankscreen.bmp	wmd6.bmp	blankscreen.bmp	circle.bmp
7	real_b	real_topleft_same_b	3	444	23	mask.bmp	blankscreen.bmp	wmd9.bmp	blankscreen.bmp	circle.bmp
7	real_b	real_topright_diff_b	4	381	23	mask.bmp	blankscreen.bmp	wfn6.bmp	blankscreen.bmp	square.bmp
7	real_b	real_topright_same_b	5	553	18	mask.bmp	blankscreen.bmp	wmn10.bmp	blankscreen.bmp	circle.bmp
7	real_b	real_bottomright_same_b	6	382	18	mask.bmp	blankscreen.bmp	wfn10.bmp	blankscreen.bmp	circle.bmp
7	real_b	real_topleft_same_b	7	386	18	mask.bmp	blankscreen.bmp	wmn9.bmp	blankscreen.bmp	circle.bmp
7	real_b	real_topright_diff_b	8	454	23	mask.bmp	blankscreen.bmp	wmn7.bmp	blankscreen.bmp	square.bmp
7	real_b	real_bottomright_diff_b	9	447	18	mask.bmp	blankscreen.bmp	wfd6.bmp	blankscreen.bmp	circle.bmp
7	real_b	real_bottomleft_diff_b	10	480	18	mask.bmp	blankscreen.bmp	wmn8.bmp	blankscreen.bmp	circle.bmp
7	real_b	real_topleft_diff_b	11	432	23	mask.bmp	blankscreen.bmp	wmn6.bmp	blankscreen.bmp	square.bmp
7	real_b	real_topleft_diff_b	12	370	18	mask.bmp	blankscreen.bmp	wfd7.bmp	blankscreen.bmp	circle.bmp
7	real_b	real_bottomright_diff_b	13	406	18	mask.bmp	blankscreen.bmp	wmd7.bmp	blankscreen.bmp	circle.bmp
7	real_b	real_bottomleft_same_b	14	529	23	mask.bmp	blankscreen.bmp	wfd9.bmp	blankscreen.bmp	square.bmp
7	real_b	real_bottomright_same_b	15	359	23	mask.bmp	blankscreen.bmp	wfd10.bmp	blankscreen.bmp	square.bmp
7	real_b	real_bottomleft_diff_b	16	420	23	mask.bmp	blankscreen.bmp	wfn7.bmp	blankscreen.bmp	square.bmp
7	real_b	real_topleft_diff_b	17	527	23	mask.bmp	blankscreen.bmp	wmd8.bmp	blankscreen.bmp	square.bmp
7	real_b	real_bottomright_diff_b	18	485	23	mask.bmp	blankscreen.bmp	wfn8.bmp	blankscreen.bmp	square.bmp
7	real_b	real_bottomleft_same_b	19	509	18	mask.bmp	blankscreen.bmp	wmd10.bmp	blankscreen.bmp	circle.bmp
7	real_b	real_topright_same_b	20	564	18	mask.bmp	blankscreen.bmp	wfn9.bmp	blankscreen.bmp	circle.bmp
7	real_c	real_topright_diff_c	1	479	18	mask.bmp	blankscreen.bmp	wfn5.bmp	blankscreen.bmp	circle.bmp
7	real_c	real_topright_diff_c	2	2087	18	mask.bmp	blankscreen.bmp	wmn3.bmp	blankscreen.bmp	circle.bmp
7	real_c	real_topleft_same_c	3	455	18	mask.bmp	blankscreen.bmp	wfd1.bmp	blankscreen.bmp	circle.bmp
7	real_c	real_bottomright_diff_c	4	400	23	mask.bmp	blankscreen.bmp	wmn4.bmp	blankscreen.bmp	square.bmp
7	real_c	real_bottomleft_diff_c	5	459	23	mask.bmp	blankscreen.bmp	wfn3.bmp	blankscreen.bmp	square.bmp
7	real_c	real_bottomleft_diff_c	6	428	23	mask.bmp	blankscreen.bmp	wfd4.bmp	blankscreen.bmp	square.bmp
7	real_c	real_topleft_diff_c	7	399	23	mask.bmp	blankscreen.bmp	wfd3.bmp	blankscreen.bmp	square.bmp
7	real_c	real_topleft_diff_c	8	426	18	mask.bmp	blankscreen.bmp	wfn4.bmp	blankscreen.bmp	circle.bmp
7	real_c	real_bottomright_diff_c	9	404	18	mask.bmp	blankscreen.bmp	wfd5.bmp	blankscreen.bmp	square.bmp
7	real_c	real_bottomleft_diff_c	10	399	23	mask.bmp	blankscreen.bmp	wmd5.bmp	blankscreen.bmp	circle.bmp
7	real_c	real_bottomright_same_c	11	642	18	mask.bmp	blankscreen.bmp	wmn2.bmp	blankscreen.bmp	circle.bmp
7	real_c	real_topright_same_c	12	516	18	mask.bmp	blankscreen.bmp	wfn2.bmp	blankscreen.bmp	square.bmp
7	real_c	real_bottomright_diff_c	13	587	23	mask.bmp	blankscreen.bmp	wmd3.bmp	blankscreen.bmp	square.bmp
7	real_c	real_topright_same_c	14	991	18	mask.bmp	blankscreen.bmp	wmd1.bmp	blankscreen.bmp	circle.bmp
7	real_c	real_topleft_same_c	15	314	23	mask.bmp	blankscreen.bmp	wfn1.bmp	blankscreen.bmp	square.bmp
7	real_c	real_bottomleft_same_c	16	497	18	mask.bmp	blankscreen.bmp	wmn1.bmp	blankscreen.bmp	circle.bmp
7	real_c	real_topright_diff_c	17	528	18	mask.bmp	blankscreen.bmp	wmd4.bmp	blankscreen.bmp	circle.bmp
7	real_c	real_topleft_diff_c	18	567	18	mask.bmp	blankscreen.bmp	wmn5.bmp	blankscreen.bmp	circle.bmp
7	real_c	real_bottomright_same_c	19	363	23	mask.bmp	blankscreen.bmp	wmd2.bmp	blankscreen.bmp	square.bmp
7	real_c	real_bottomleft_same_c	20	527	18	mask.bmp	blankscreen.bmp	wfd2.bmp	blankscreen.bmp	circle.bmp
7	real_d	real_bottomleft_diff_d	1	477	23	mask.bmp	blankscreen.bmp	wmd8.bmp	blankscreen.bmp	square.bmp
7	real_d	real_topleft_same_d	2	413	18	mask.bmp	blankscreen.bmp	wmn6.bmp	blankscreen.bmp	circle.bmp
7	real_d	real_topleft_diff_d	3	335	23	mask.bmp	blankscreen.bmp	wfn10.bmp	blankscreen.bmp	square.bmp
7	real_d	real_bottomright_same_d	4	309	23	mask.bmp	blankscreen.bmp	wfn7.bmp	blankscreen.bmp	square.bmp
7	real_d	real_topright_diff_d	5	404	18	mask.bmp	blankscreen.bmp	wmd10.bmp	blankscreen.bmp	circle.bmp
7	real_d	real_bottomleft_diff_d	6	471	18	mask.bmp	blankscreen.bmp	wfd10.bmp	blankscreen.bmp	square.bmp
7	real_d	real_topright_diff_d	7	344	23	mask.bmp	blankscreen.bmp	wfd9.bmp	blankscreen.bmp	square.bmp
7	real_d	real_bottomright_diff_d	8	398	18	mask.bmp	blankscreen.bmp	wfn9.bmp	blankscreen.bmp	circle.bmp
7	real_d	real_topright_same_d	9	729	23	mask.bmp	blankscreen.bmp	wfd6.bmp	blankscreen.bmp	square.bmp
7	real_d	real_topleft_same_d	10	351	23	mask.bmp	blankscreen.bmp	wmd6.bmp	blankscreen.bmp	square.bmp
7	real_d	real_bottomright_diff_d	11	484	23	mask.bmp	blankscreen.bmp	wfd8.bmp	blankscreen.bmp	square.bmp
7	real_d	real_bottomleft_diff_d	12	460	18	mask.bmp	blankscreen.bmp	wmn9.bmp	blankscreen.bmp	circle.bmp
7	real_d	real_bottomright_same_d	13	429	18	mask.bmp	blankscreen.bmp	wfd7.bmp	blankscreen.bmp	circle.bmp
7	real_d	real_bottomleft_same_d	14	319	23	mask.bmp	blankscreen.bmp	wmn7.bmp	blankscreen.bmp	square.bmp
7	real_d	real_topright_diff_d	15	382	18	mask.bmp	blankscreen.bmp	wfn8.bmp	blankscreen.bmp	circle.bmp
7	real_d	real_topleft_diff_d	16	457	18	mask.bmp	blankscreen.bmp	wmn8.bmp	blankscreen.bmp	circle.bmp
7	real_d	real_topleft_diff_d	17	419	23	mask.bmp	blankscreen.bmp	wmd9.bmp	blankscreen.bmp	square.bmp
7	real_d	real_bottomright_diff_d	18	421	23	mask.bmp	blankscreen.bmp	wmn10.bmp	blankscreen.bmp	square.bmp
7	real_d	real_bottomleft_same_d	19	343	23	mask.bmp	blankscreen.bmp	wfn6.bmp	blankscreen.bmp	square.bmp
7	real_d	real_topright_same_d	20	437	18	mask.bmp	blankscreen.bmp	wmd7.bmp	blankscreen.bmp	circle.bmp
16	practice	practice_topleft_diff	1	747	18	mask.bmp	blankscreen.bmp	practice9.jpg	blankscreen.bmp	circle.bmp
16	practice	practice_topleft_same	2	929	23	mask.bmp	blankscreen.bmp	practice1.jpg	blankscreen.bmp	square.bmp
16	practice	practice_bottomleft_same	3	534	18	mask.bmp	blankscreen.bmp	practice6.jpg	blankscreen.bmp	circle.bmp
16	practice	practice_bottomright_diff	4	1108	18	mask.bmp	blankscreen.bmp	practice12.jpg	blankscreen.bmp	circle.bmp
16	practice	practice_bottomright_same	5	851	23	mask.bmp	blankscreen.bmp	practice8.jpg	blankscreen.bmp	square.bmp
16	practice	practice_topright_same	6	756	23	mask.bmp	blankscreen.bmp	practice3.jpg	blankscreen.bmp	square.bmp
16	practice	practice_bottomleft_diff	7	930	23	mask.bmp	blankscreen.bmp	practice11.jpg	blankscreen.bmp	square.bmp
16	practice	practice_topleft_same	8	760	23	mask.bmp	blankscreen.bmp	practice2.jpg	blankscreen.bmp	square.bmp
16	practice	practice_topright_diff	9	749	23	mask.bmp	blankscreen.bmp	practice10.jpg	blankscreen.bmp	square.bmp
16	practice	practice_bottomleft_same	10	666	23	mask.bmp	blankscreen.bmp	practice5.jpg	blankscreen.bmp	square.bmp
16	practice	practice_topright_same	11	578	23	mask.bmp	blankscreen.bmp	practice4.jpg	blankscreen.bmp	square.bmp
16	practice	practice_bottomright_same	12	783	23	mask.bmp	blankscreen.bmp	practice7.jpg	blankscreen.bmp	square.bmp
16	real_a	real_topleft_diff_a	1	1133	18	mask.bmp	blankscreen.bmp	wfd1.bmp	blankscreen.bmp	circle.bmp
16	real_a	real_bottomleft_same_a	2	1474	18	mask.bmp	blankscreen.bmp	wmd4.bmp	blankscreen.bmp	circle.bmp
16	real_a	real_bottomright_diff_a	3	659	23	mask.bmp	blankscreen.bmp	wmn3.bmp	blankscreen.bmp	square.bmp
16	real_a	real_topright_diff_a	4	1164	23	mask.bmp	blankscreen.bmp	wfd2.bmp	blankscreen.bmp	square.bmp
16	real_a	real_bottomleft_diff_a	5	1041	18	mask.bmp	blankscreen.bmp	wfd3.bmp	blankscreen.bmp	circle.bmp
16	real_a	real_bottomright_diff_a	6	707	23	mask.bmp	blankscreen.bmp	wfn2.bmp	blankscreen.bmp	square.bmp
16	real_a	real_bottomright_same_a	7	922	23	mask.bmp	blankscreen.bmp	wmd5.bmp	blankscreen.bmp	square.bmp
16	real_a	real_topleft_diff_a	8	616	23	mask.bmp	blankscreen.bmp	wfn3.bmp	blankscreen.bmp	square.bmp
16	real_a	real_bottomright_same_a	9	787	18	mask.bmp	blankscreen.bmp	wmn5.bmp	blankscreen.bmp	circle.bmp
16	real_a	real_topright_same_a	10	1079	18	mask.bmp	blankscreen.bmp	wmn4.bmp	blankscreen.bmp	circle.bmp
16	real_a	real_topright_diff_a	11	951	18	mask.bmp	blankscreen.bmp	wmd3.bmp	blankscreen.bmp	circle.bmp
16	real_a	real_topleft_same_a	12	1092	18	mask.bmp	blankscreen.bmp	wfd4.bmp	blankscreen.bmp	circle.bmp
16	real_a	real_bottomleft_diff_a	13	812	18	mask.bmp	blankscreen.bmp	wmn2.bmp	blankscreen.bmp	circle.bmp
16	real_a	real_bottomright_diff_a	14	695	23	mask.bmp	blankscreen.bmp	wmd1.bmp	blankscreen.bmp	square.bmp
16	real_a	real_topleft_same_a	15	607	18	mask.bmp	blankscreen.bmp	wfn4.bmp	blankscreen.bmp	circle.bmp
16	real_a	real_bottomleft_diff_a	16	690	23	mask.bmp	blankscreen.bmp	wfn1.bmp	blankscreen.bmp	square.bmp
16	real_a	real_topright_same_a	17	818	23	mask.bmp	blankscreen.bmp	wfd5.bmp	blankscreen.bmp	square.bmp
16	real_a	real_topright_diff_a	18	716	23	mask.bmp	blankscreen.bmp	wmn1.bmp	blankscreen.bmp	square.bmp
16	real_a	real_topleft_diff_a	19	699	23	mask.bmp	blankscreen.bmp	wmd2.bmp	blankscreen.bmp	square.bmp
16	real_a	real_bottomleft_same_a	20	642	18	mask.bmp	blankscreen.bmp	wfn5.bmp	blankscreen.bmp	circle.bmp
16	real_b	real_bottomleft_same_b	1	743	18	mask.bmp	blankscreen.bmp	wfd9.bmp	blankscreen.bmp	circle.bmp
16	real_b	real_topright_same_b	2	533	23	mask.bmp	blankscreen.bmp	wmn10.bmp	blankscreen.bmp	square.bmp
16	real_b	real_topright_diff_b	3	771	18	mask.bmp	blankscreen.bmp	wmn7.bmp	blankscreen.bmp	circle.bmp
16	real_b	real_topleft_diff_b	4	607	23	mask.bmp	blankscreen.bmp	wfd7.bmp	blankscreen.bmp	square.bmp
16	real_b	real_topleft_diff_b	5	666	23	mask.bmp	blankscreen.bmp	wmd8.bmp	blankscreen.bmp	square.bmp
16	real_b	real_bottomleft_same_b	6	851	18	mask.bmp	blankscreen.bmp	wmd10.bmp	blankscreen.bmp	circle.bmp
16	real_b	real_topright_diff_b	7	668	23	mask.bmp	blankscreen.bmp	wfn6.bmp	blankscreen.bmp	square.bmp
16	real_b	real_bottomright_diff_b	8	565	18	mask.bmp	blankscreen.bmp	wfn8.bmp	blankscreen.bmp	circle.bmp
16	real_b	real_topleft_same_b	9	881	23	mask.bmp	blankscreen.bmp	wmn9.bmp	blankscreen.bmp	square.bmp
16	real_b	real_bottomright_diff_b	10	657	18	mask.bmp	blankscreen.bmp	wmd7.bmp	blankscreen.bmp	circle.bmp
16	real_b	real_bottomleft_diff_b	11	602	18	mask.bmp	blankscreen.bmp	wfn7.bmp	blankscreen.bmp	circle.bmp
16	real_b	real_bottomright_same_b	12	613	18	mask.bmp	blankscreen.bmp	wfd10.bmp	blankscreen.bmp	circle.bmp
16	real_b	real_topleft_diff_b	13	840	18	mask.bmp	blankscreen.bmp	wmn6.bmp	blankscreen.bmp	circle.bmp
16	real_b	real_bottomleft_diff_b	14	674	18	mask.bmp	blankscreen.bmp	wmn8.bmp	blankscreen.bmp	circle.bmp
16	real_b	real_topright_diff_b	15	650	18	mask.bmp	blankscreen.bmp	wfd8.bmp	blankscreen.bmp	circle.bmp
16	real_b	real_topleft_same_b	16	547	23	mask.bmp	blankscreen.bmp	wmd9.bmp	blankscreen.bmp	square.bmp
16	real_b	real_topright_same_b	17	624	18	mask.bmp	blankscreen.bmp	wfn9.bmp	blankscreen.bmp	circle.bmp
16	real_b	real_bottomright_same_b	18	547	18	mask.bmp	blankscreen.bmp	wfn10.bmp	blankscreen.bmp	circle.bmp
16	real_b	real_bottomleft_diff_b	19	576	23	mask.bmp	blankscreen.bmp	wmd6.bmp	blankscreen.bmp	square.bmp
16	real_b	real_bottomright_diff_b	20	661	23	mask.bmp	blankscreen.bmp	wfd6.bmp	blankscreen.bmp	square.bmp
16	real_c	real_topright_same_c	1	610	23	mask.bmp	blankscreen.bmp	wmd1.bmp	blankscreen.bmp	square.bmp
16	real_c	real_bottomright_same_c	2	517	23	mask.bmp	blankscreen.bmp	wmn2.bmp	blankscreen.bmp	square.bmp
16	real_c	real_topright_diff_c	3	683	18	mask.bmp	blankscreen.bmp	wmd4.bmp	blankscreen.bmp	circle.bmp
16	real_c	real_topleft_same_c	4	475	18	mask.bmp	blankscreen.bmp	wfn1.bmp	blankscreen.bmp	circle.bmp
16	real_c	real_topleft_diff_c	5	523	23	mask.bmp	blankscreen.bmp	wfd3.bmp	blankscreen.bmp	square.bmp
16	real_c	real_bottomleft_diff_c	6	778	18	mask.bmp	blankscreen.bmp	wfd4.bmp	blankscreen.bmp	circle.bmp
16	real_c	real_topright_diff_c	7	710	18	mask.bmp	blankscreen.bmp	wmn3.bmp	blankscreen.bmp	circle.bmp
16	real_c	real_topright_same_c	8	542	23	mask.bmp	blankscreen.bmp	wfn2.bmp	blankscreen.bmp	square.bmp
16	real_c	real_topleft_diff_c	9	595	23	mask.bmp	blankscreen.bmp	wfn4.bmp	blankscreen.bmp	square.bmp
16	real_c	real_topright_diff_c	10	879	18	mask.bmp	blankscreen.bmp	wfn5.bmp	blankscreen.bmp	circle.bmp
16	real_c	real_bottomright_diff_c	11	583	18	mask.bmp	blankscreen.bmp	wfd5.bmp	blankscreen.bmp	square.bmp
16	real_c	real_topleft_same_c	12	1267	23	mask.bmp	blankscreen.bmp	wfd1.bmp	blankscreen.bmp	square.bmp
16	real_c	real_bottomleft_diff_c	13	1028	23	mask.bmp	blankscreen.bmp	wfn3.bmp	blankscreen.bmp	square.bmp
16	real_c	real_bottomright_diff_c	14	798	23	mask.bmp	blankscreen.bmp	wmd3.bmp	blankscreen.bmp	square.bmp
16	real_c	real_bottomright_diff_c	15	769	23	mask.bmp	blankscreen.bmp	wmn4.bmp	blankscreen.bmp	square.bmp
16	real_c	real_bottomright_same_c	16	686	23	mask.bmp	blankscreen.bmp	wmd2.bmp	blankscreen.bmp	square.bmp
16	real_c	real_bottomleft_same_c	17	638	23	mask.bmp	blankscreen.bmp	wfd2.bmp	blankscreen.bmp	square.bmp
16	real_c	real_bottomleft_same_c	18	695	18	mask.bmp	blankscreen.bmp	wmn1.bmp	blankscreen.bmp	circle.bmp
16	real_c	real_topleft_diff_c	19	1319	23	mask.bmp	blankscreen.bmp	wmn5.bmp	blankscreen.bmp	square.bmp
16	real_c	real_bottomleft_diff_c	20	1062	23	mask.bmp	blankscreen.bmp	wmd5.bmp	blankscreen.bmp	square.bmp
16	real_d	real_topleft_diff_d	1	695	23	mask.bmp	blankscreen.bmp	wmd9.bmp	blankscreen.bmp	square.bmp
16	real_d	real_bottomright_diff_d	2	798	23	mask.bmp	blankscreen.bmp	wmn10.bmp	blankscreen.bmp	square.bmp
16	real_d	real_topleft_same_d	3	506	23	mask.bmp	blankscreen.bmp	wmn6.bmp	blankscreen.bmp	square.bmp
16	real_d	real_bottomright_diff_d	4	585	23	mask.bmp	blankscreen.bmp	wfd8.bmp	blankscreen.bmp	square.bmp
16	real_d	real_topright_same_d	5	469	23	mask.bmp	blankscreen.bmp	wfd6.bmp	blankscreen.bmp	square.bmp
16	real_d	real_topright_same_d	6	453	23	mask.bmp	blankscreen.bmp	wmd7.bmp	blankscreen.bmp	square.bmp
16	real_d	real_bottomright_same_d	7	446	23	mask.bmp	blankscreen.bmp	wfn7.bmp	blankscreen.bmp	square.bmp
16	real_d	real_bottomright_diff_d	8	495	18	mask.bmp	blankscreen.bmp	wfn9.bmp	blankscreen.bmp	circle.bmp
16	real_d	real_bottomright_same_d	9	487	18	mask.bmp	blankscreen.bmp	wfd7.bmp	blankscreen.bmp	circle.bmp
16	real_d	real_topright_diff_d	10	551	23	mask.bmp	blankscreen.bmp	wfd9.bmp	blankscreen.bmp	square.bmp
16	real_d	real_topright_diff_d	11	676	18	mask.bmp	blankscreen.bmp	wmd10.bmp	blankscreen.bmp	circle.bmp
16	real_d	real_bottomleft_diff_d	12	717	18	mask.bmp	blankscreen.bmp	wmd8.bmp	blankscreen.bmp	circle.bmp
16	real_d	real_bottomleft_same_d	13	579	23	mask.bmp	blankscreen.bmp	wfn6.bmp	blankscreen.bmp	square.bmp
16	real_d	real_topleft_diff_d	14	679	18	mask.bmp	blankscreen.bmp	wfn10.bmp	blankscreen.bmp	circle.bmp
16	real_d	real_topright_diff_d	15	863	23	mask.bmp	blankscreen.bmp	wfn8.bmp	blankscreen.bmp	square.bmp
16	real_d	real_topleft_diff_d	16	648	18	mask.bmp	blankscreen.bmp	wmn8.bmp	blankscreen.bmp	circle.bmp
16	real_d	real_bottomleft_same_d	17	521	23	mask.bmp	blankscreen.bmp	wmn7.bmp	blankscreen.bmp	square.bmp
16	real_d	real_topleft_same_d	18	1144	18	mask.bmp	blankscreen.bmp	wmd6.bmp	blankscreen.bmp	circle.bmp
16	real_d	real_bottomleft_diff_d	19	501	23	mask.bmp	blankscreen.bmp	wfd10.bmp	blankscreen.bmp	square.bmp
16	real_d	real_bottomleft_diff_d	20	1621	23	mask.bmp	blankscreen.bmp	wmn9.bmp	blankscreen.bmp	square.bmp
20	practice	practice_topright_same	1	598	18	mask.bmp	blankscreen.bmp	practice4.jpg	blankscreen.bmp	circle.bmp
20	practice	practice_bottomright_same	2	1329	18	mask.bmp	blankscreen.bmp	practice8.jpg	blankscreen.bmp	circle.bmp
20	practice	practice_topleft_same	3	535	18	mask.bmp	blankscreen.bmp	practice1.jpg	blankscreen.bmp	circle.bmp
20	practice	practice_bottomleft_same	4	813	18	mask.bmp	blankscreen.bmp	practice6.jpg	blankscreen.bmp	circle.bmp
20	practice	practice_topright_same	5	519	18	mask.bmp	blankscreen.bmp	practice3.jpg	blankscreen.bmp	circle.bmp
20	practice	practice_bottomleft_diff	6	774	23	mask.bmp	blankscreen.bmp	practice11.jpg	blankscreen.bmp	square.bmp
20	practice	practice_bottomleft_same	7	394	23	mask.bmp	blankscreen.bmp	practice5.jpg	blankscreen.bmp	square.bmp
20	practice	practice_bottomright_diff	8	606	18	mask.bmp	blankscreen.bmp	practice12.jpg	blankscreen.bmp	square.bmp
20	practice	practice_bottomright_same	9	633	23	mask.bmp	blankscreen.bmp	practice7.jpg	blankscreen.bmp	square.bmp
20	practice	practice_topright_diff	10	587	23	mask.bmp	blankscreen.bmp	practice10.jpg	blankscreen.bmp	square.bmp
20	practice	practice_topleft_diff	11	751	18	mask.bmp	blankscreen.bmp	practice9.jpg	blankscreen.bmp	circle.bmp
20	practice	practice_topleft_same	12	556	23	mask.bmp	blankscreen.bmp	practice2.jpg	blankscreen.bmp	square.bmp
20	real_a	real_bottomleft_same_a	1	727	18	mask.bmp	blankscreen.bmp	wfn5.bmp	blankscreen.bmp	circle.bmp
20	real_a	real_topleft_diff_a	2	709	18	mask.bmp	blankscreen.bmp	wfn3.bmp	blankscreen.bmp	circle.bmp
20	real_a	real_bottomleft_same_a	3	724	18	mask.bmp	blankscreen.bmp	wmd4.bmp	blankscreen.bmp	circle.bmp
20	real_a	real_topleft_same_a	4	515	18	mask.bmp	blankscreen.bmp	wfn4.bmp	blankscreen.bmp	circle.bmp
20	real_a	real_topright_same_a	5	385	18	mask.bmp	blankscreen.bmp	wmn4.bmp	blankscreen.bmp	square.bmp
20	real_a	real_bottomright_diff_a	6	701	18	mask.bmp	blankscreen.bmp	wmd1.bmp	blankscreen.bmp	circle.bmp
20	real_a	real_topleft_diff_a	7	684	23	mask.bmp	blankscreen.bmp	wfd1.bmp	blankscreen.bmp	square.bmp
20	real_a	real_bottomleft_diff_a	8	972	18	mask.bmp	blankscreen.bmp	wfd3.bmp	blankscreen.bmp	circle.bmp
20	real_a	real_topright_diff_a	9	641	18	mask.bmp	blankscreen.bmp	wfd2.bmp	blankscreen.bmp	circle.bmp
20	real_a	real_topright_diff_a	10	778	18	mask.bmp	blankscreen.bmp	wmd3.bmp	blankscreen.bmp	circle.bmp
20	real_a	real_bottomright_diff_a	11	615	18	mask.bmp	blankscreen.bmp	wfn2.bmp	blankscreen.bmp	circle.bmp
20	real_a	real_bottomleft_diff_a	12	529	18	mask.bmp	blankscreen.bmp	wmn2.bmp	blankscreen.bmp	circle.bmp
20	real_a	real_topleft_same_a	13	719	18	mask.bmp	blankscreen.bmp	wfd4.bmp	blankscreen.bmp	circle.bmp
20	real_a	real_bottomright_diff_a	14	454	18	mask.bmp	blankscreen.bmp	wmn3.bmp	blankscreen.bmp	circle.bmp
20	real_a	real_topleft_diff_a	15	479	18	mask.bmp	blankscreen.bmp	wmd2.bmp	blankscreen.bmp	circle.bmp
20	real_a	real_bottomright_same_a	16	1143	18	mask.bmp	blankscreen.bmp	wmn5.bmp	blankscreen.bmp	circle.bmp
20	real_a	real_bottomright_same_a	17	628	23	mask.bmp	blankscreen.bmp	wmd5.bmp	blankscreen.bmp	square.bmp
20	real_a	real_topright_same_a	18	566	18	mask.bmp	blankscreen.bmp	wfd5.bmp	blankscreen.bmp	circle.bmp
20	real_a	real_topright_diff_a	19	411	18	mask.bmp	blankscreen.bmp	wmn1.bmp	blankscreen.bmp	square.bmp
20	real_a	real_bottomleft_diff_a	20	822	23	mask.bmp	blankscreen.bmp	wfn1.bmp	blankscreen.bmp	square.bmp
20	real_b	real_bottomleft_same_b	1	576	18	mask.bmp	blankscreen.bmp	wfd9.bmp	blankscreen.bmp	circle.bmp
20	real_b	real_topleft_diff_b	2	413	23	mask.bmp	blankscreen.bmp	wmd8.bmp	blankscreen.bmp	square.bmp
20	real_b	real_bottomleft_diff_b	3	471	23	mask.bmp	blankscreen.bmp	wmn8.bmp	blankscreen.bmp	square.bmp
20	real_b	real_bottomright_same_b	4	440	18	mask.bmp	blankscreen.bmp	wfn10.bmp	blankscreen.bmp	square.bmp
20	real_b	real_topleft_same_b	5	537	18	mask.bmp	blankscreen.bmp	wmn9.bmp	blankscreen.bmp	circle.bmp
20	real_b	real_topright_diff_b	6	711	18	mask.bmp	blankscreen.bmp	wfn6.bmp	blankscreen.bmp	circle.bmp
20	real_b	real_topright_same_b	7	502	18	mask.bmp	blankscreen.bmp	wfn9.bmp	blankscreen.bmp	circle.bmp
20	real_b	real_topleft_diff_b	8	453	18	mask.bmp	blankscreen.bmp	wmn6.bmp	blankscreen.bmp	circle.bmp
20	real_b	real_topleft_diff_b	9	414	23	mask.bmp	blankscreen.bmp	wfd7.bmp	blankscreen.bmp	square.bmp
20	real_b	real_topright_diff_b	10	368	18	mask.bmp	blankscreen.bmp	wmn7.bmp	blankscreen.bmp	circle.bmp
20	real_b	real_bottomright_diff_b	11	453	18	mask.bmp	blankscreen.bmp	wfn8.bmp	blankscreen.bmp	circle.bmp
20	real_b	real_bottomright_same_b	12	646	18	mask.bmp	blankscreen.bmp	wfd10.bmp	blankscreen.bmp	circle.bmp
20	real_b	real_topright_diff_b	13	479	18	mask.bmp	blankscreen.bmp	wfd8.bmp	blankscreen.bmp	circle.bmp
20	real_b	real_bottomleft_diff_b	14	431	18	mask.bmp	blankscreen.bmp	wmd6.bmp	blankscreen.bmp	circle.bmp
20	real_b	real_bottomleft_same_b	15	441	23	mask.bmp	blankscreen.bmp	wmd10.bmp	blankscreen.bmp	square.bmp
20	real_b	real_bottomleft_diff_b	16	483	18	mask.bmp	blankscreen.bmp	wfn7.bmp	blankscreen.bmp	circle.bmp
20	real_b	real_topleft_same_b	17	434	23	mask.bmp	blankscreen.bmp	wmd9.bmp	blankscreen.bmp	square.bmp
20	real_b	real_bottomright_diff_b	18	452	18	mask.bmp	blankscreen.bmp	wmd7.bmp	blankscreen.bmp	circle.bmp
20	real_b	real_bottomright_diff_b	19	389	23	mask.bmp	blankscreen.bmp	wfd6.bmp	blankscreen.bmp	square.bmp
20	real_b	real_topright_same_b	20	473	18	mask.bmp	blankscreen.bmp	wmn10.bmp	blankscreen.bmp	circle.bmp
20	real_c	real_bottomright_same_c	1	433	18	mask.bmp	blankscreen.bmp	wmn2.bmp	blankscreen.bmp	circle.bmp
20	real_c	real_bottomright_diff_c	2	451	18	mask.bmp	blankscreen.bmp	wmd3.bmp	blankscreen.bmp	circle.bmp
20	real_c	real_topright_same_c	3	612	23	mask.bmp	blankscreen.bmp	wfn2.bmp	blankscreen.bmp	square.bmp
20	real_c	real_topleft_same_c	4	583	23	mask.bmp	blankscreen.bmp	wfd1.bmp	blankscreen.bmp	square.bmp
20	real_c	real_topright_diff_c	5	491	18	mask.bmp	blankscreen.bmp	wmd4.bmp	blankscreen.bmp	circle.bmp
20	real_c	real_bottomleft_diff_c	6	499	23	mask.bmp	blankscreen.bmp	wfd4.bmp	blankscreen.bmp	square.bmp
20	real_c	real_bottomright_same_c	7	562	23	mask.bmp	blankscreen.bmp	wmd2.bmp	blankscreen.bmp	square.bmp
20	real_c	real_bottomright_diff_c	8	391	18	mask.bmp	blankscreen.bmp	wfd5.bmp	blankscreen.bmp	circle.bmp
20	real_c	real_bottomleft_diff_c	9	458	18	mask.bmp	blankscreen.bmp	wmd5.bmp	blankscreen.bmp	circle.bmp
20	real_c	real_bottomleft_same_c	10	452	18	mask.bmp	blankscreen.bmp	wmn1.bmp	blankscreen.bmp	circle.bmp
20	real_c	real_bottomleft_same_c	11	373	23	mask.bmp	blankscreen.bmp	wfd2.bmp	blankscreen.bmp	square.bmp
20	real_c	real_topleft_diff_c	12	417	18	mask.bmp	blankscreen.bmp	wfn4.bmp	blankscreen.bmp	circle.bmp
20	real_c	real_topleft_diff_c	13	316	23	mask.bmp	blankscreen.bmp	wfd3.bmp	blankscreen.bmp	square.bmp
20	real_c	real_bottomleft_diff_c	14	338	18	mask.bmp	blankscreen.bmp	wfn3.bmp	blankscreen.bmp	circle.bmp
20	real_c	real_topright_diff_c	15	584	18	mask.bmp	blankscreen.bmp	wmn3.bmp	blankscreen.bmp	circle.bmp
20	real_c	real_topleft_diff_c	16	324	23	mask.bmp	blankscreen.bmp	wmn5.bmp	blankscreen.bmp	square.bmp
20	real_c	real_topleft_same_c	17	474	23	mask.bmp	blankscreen.bmp	wfn1.bmp	blankscreen.bmp	square.bmp
20	real_c	real_bottomright_diff_c	18	523	18	mask.bmp	blankscreen.bmp	wmn4.bmp	blankscreen.bmp	circle.bmp
20	real_c	real_topright_diff_c	19	385	23	mask.bmp	blankscreen.bmp	wfn5.bmp	blankscreen.bmp	square.bmp
20	real_c	real_topright_same_c	20	429	23	mask.bmp	blankscreen.bmp	wmd1.bmp	blankscreen.bmp	square.bmp
20	real_d	real_topleft_diff_d	1	359	23	mask.bmp	blankscreen.bmp	wmd9.bmp	blankscreen.bmp	square.bmp
20	real_d	real_topleft_diff_d	2	332	18	mask.bmp	blankscreen.bmp	wmn8.bmp	blankscreen.bmp	circle.bmp
20	real_d	real_topright_diff_d	3	401	18	mask.bmp	blankscreen.bmp	wfd9.bmp	blankscreen.bmp	circle.bmp
20	real_d	real_topright_diff_d	4	468	18	mask.bmp	blankscreen.bmp	wmd10.bmp	blankscreen.bmp	circle.bmp
20	real_d	real_bottomleft_same_d	5	309	23	mask.bmp	blankscreen.bmp	wmn7.bmp	blankscreen.bmp	square.bmp
20	real_d	real_topleft_same_d	6	492	23	mask.bmp	blankscreen.bmp	wmd6.bmp	blankscreen.bmp	square.bmp
20	real_d	real_topright_diff_d	7	460	18	mask.bmp	blankscreen.bmp	wfn8.bmp	blankscreen.bmp	circle.bmp
20	real_d	real_bottomleft_diff_d	8	445	23	mask.bmp	blankscreen.bmp	wmn9.bmp	blankscreen.bmp	square.bmp
20	real_d	real_bottomright_same_d	9	519	18	mask.bmp	blankscreen.bmp	wfd7.bmp	blankscreen.bmp	circle.bmp
20	real_d	real_topleft_diff_d	10	373	23	mask.bmp	blankscreen.bmp	wfn10.bmp	blankscreen.bmp	square.bmp
20	real_d	real_bottomright_diff_d	11	570	23	mask.bmp	blankscreen.bmp	wmn10.bmp	blankscreen.bmp	square.bmp
20	real_d	real_bottomright_diff_d	12	462	23	mask.bmp	blankscreen.bmp	wfd8.bmp	blankscreen.bmp	square.bmp
20	real_d	real_topright_same_d	13	487	18	mask.bmp	blankscreen.bmp	wmd7.bmp	blankscreen.bmp	circle.bmp
20	real_d	real_bottomleft_diff_d	14	518	18	mask.bmp	blankscreen.bmp	wfd10.bmp	blankscreen.bmp	circle.bmp
20	real_d	real_bottomright_same_d	15	525	23	mask.bmp	blankscreen.bmp	wfn7.bmp	blankscreen.bmp	circle.bmp
20	real_d	real_bottomleft_same_d	16	403	18	mask.bmp	blankscreen.bmp	wfn6.bmp	blankscreen.bmp	circle.bmp
20	real_d	real_bottomleft_diff_d	17	415	18	mask.bmp	blankscreen.bmp	wmd8.bmp	blankscreen.bmp	circle.bmp
20	real_d	real_topleft_same_d	18	393	18	mask.bmp	blankscreen.bmp	wmn6.bmp	blankscreen.bmp	circle.bmp
20	real_d	real_bottomright_diff_d	19	325	18	mask.bmp	blankscreen.bmp	wfn9.bmp	blankscreen.bmp	circle.bmp
20	real_d	real_topright_same_d	20	676	23	mask.bmp	blankscreen.bmp	wfd6.bmp	blankscreen.bmp	square.bmp
24	practice	practice_topright_same	1	1637	23	mask.bmp	blankscreen.bmp	practice4.jpg	blankscreen.bmp	square.bmp
24	practice	practice_topright_diff	2	1247	18	mask.bmp	blankscreen.bmp	practice10.jpg	blankscreen.bmp	square.bmp
24	practice	practice_topleft_diff	3	760	18	mask.bmp	blankscreen.bmp	practice9.jpg	blankscreen.bmp	circle.bmp
24	practice	practice_bottomleft_same	4	925	23	mask.bmp	blankscreen.bmp	practice6.jpg	blankscreen.bmp	circle.bmp
24	practice	practice_bottomleft_same	5	603	18	mask.bmp	blankscreen.bmp	practice5.jpg	blankscreen.bmp	circle.bmp
24	practice	practice_bottomright_same	6	847	18	mask.bmp	blankscreen.bmp	practice8.jpg	blankscreen.bmp	circle.bmp
24	practice	practice_topright_same	7	528	18	mask.bmp	blankscreen.bmp	practice3.jpg	blankscreen.bmp	circle.bmp
24	practice	practice_bottomright_diff	8	670	18	mask.bmp	blankscreen.bmp	practice12.jpg	blankscreen.bmp	circle.bmp
24	practice	practice_topleft_same	9	679	23	mask.bmp	blankscreen.bmp	practice2.jpg	blankscreen.bmp	square.bmp
24	practice	practice_topleft_same	10	1023	23	mask.bmp	blankscreen.bmp	practice1.jpg	blankscreen.bmp	square.bmp
24	practice	practice_bottomright_same	11	545	23	mask.bmp	blankscreen.bmp	practice7.jpg	blankscreen.bmp	square.bmp
24	practice	practice_bottomleft_diff	12	871	23	mask.bmp	blankscreen.bmp	practice11.jpg	blankscreen.bmp	square.bmp
24	real_a	real_bottomright_diff_a	1	874	23	mask.bmp	blankscreen.bmp	wmn3.bmp	blankscreen.bmp	square.bmp
24	real_a	real_topright_same_a	2	563	18	mask.bmp	blankscreen.bmp	wmn4.bmp	blankscreen.bmp	circle.bmp
24	real_a	real_topleft_same_a	3	367	23	mask.bmp	blankscreen.bmp	wfn4.bmp	blankscreen.bmp	square.bmp
24	real_a	real_bottomleft_diff_a	4	484	18	mask.bmp	blankscreen.bmp	wfd3.bmp	blankscreen.bmp	square.bmp
24	real_a	real_topright_diff_a	5	444	18	mask.bmp	blankscreen.bmp	wfd2.bmp	blankscreen.bmp	square.bmp
24	real_a	real_topright_diff_a	6	773	18	mask.bmp	blankscreen.bmp	wmd3.bmp	blankscreen.bmp	circle.bmp
24	real_a	real_bottomleft_diff_a	7	522	23	mask.bmp	blankscreen.bmp	wmn2.bmp	blankscreen.bmp	circle.bmp
24	real_a	real_bottomright_diff_a	8	600	23	mask.bmp	blankscreen.bmp	wmd1.bmp	blankscreen.bmp	square.bmp
24	real_a	real_bottomleft_diff_a	9	491	18	mask.bmp	blankscreen.bmp	wfn1.bmp	blankscreen.bmp	circle.bmp
24	real_a	real_bottomright_same_a	10	507	23	mask.bmp	blankscreen.bmp	wmd5.bmp	blankscreen.bmp	circle.bmp
24	real_a	real_bottomright_diff_a	11	410	18	mask.bmp	blankscreen.bmp	wfn2.bmp	blankscreen.bmp	square.bmp
24	real_a	real_topleft_diff_a	12	614	23	mask.bmp	blankscreen.bmp	wfn3.bmp	blankscreen.bmp	circle.bmp
24	real_a	real_topleft_diff_a	13	768	18	mask.bmp	blankscreen.bmp	wmd2.bmp	blankscreen.bmp	square.bmp
24	real_a	real_bottomright_same_a	14	2020	23	mask.bmp	blankscreen.bmp	wmn5.bmp	blankscreen.bmp	square.bmp
24	real_a	real_topright_diff_a	15	807	23	mask.bmp	blankscreen.bmp	wmn1.bmp	blankscreen.bmp	square.bmp
24	real_a	real_bottomleft_same_a	16	418	23	mask.bmp	blankscreen.bmp	wmd4.bmp	blankscreen.bmp	square.bmp
24	real_a	real_bottomleft_same_a	17	637	18	mask.bmp	blankscreen.bmp	wfn5.bmp	blankscreen.bmp	circle.bmp
24	real_a	real_topleft_same_a	18	599	23	mask.bmp	blankscreen.bmp	wfd4.bmp	blankscreen.bmp	square.bmp
24	real_a	real_topleft_diff_a	19	586	23	mask.bmp	blankscreen.bmp	wfd1.bmp	blankscreen.bmp	circle.bmp
24	real_a	real_topright_same_a	20	1046	23	mask.bmp	blankscreen.bmp	wfd5.bmp	blankscreen.bmp	square.bmp
24	real_b	real_topleft_diff_b	1	678	23	mask.bmp	blankscreen.bmp	wmd8.bmp	blankscreen.bmp	square.bmp
24	real_b	real_bottomright_same_b	2	646	23	mask.bmp	blankscreen.bmp	wfd10.bmp	blankscreen.bmp	square.bmp
24	real_b	real_bottomleft_diff_b	3	495	23	mask.bmp	blankscreen.bmp	wmd6.bmp	blankscreen.bmp	square.bmp
24	real_b	real_bottomright_diff_b	4	567	23	mask.bmp	blankscreen.bmp	wfd6.bmp	blankscreen.bmp	square.bmp
24	real_b	real_topright_same_b	5	555	23	mask.bmp	blankscreen.bmp	wfn9.bmp	blankscreen.bmp	square.bmp
24	real_b	real_bottomleft_same_b	6	744	23	mask.bmp	blankscreen.bmp	wfd9.bmp	blankscreen.bmp	square.bmp
24	real_b	real_bottomright_diff_b	7	678	18	mask.bmp	blankscreen.bmp	wfn8.bmp	blankscreen.bmp	circle.bmp
24	real_b	real_topright_diff_b	8	695	23	mask.bmp	blankscreen.bmp	wfd8.bmp	blankscreen.bmp	circle.bmp
24	real_b	real_topleft_diff_b	9	654	23	mask.bmp	blankscreen.bmp	wmn6.bmp	blankscreen.bmp	square.bmp
24	real_b	real_topright_diff_b	10	648	18	mask.bmp	blankscreen.bmp	wfn6.bmp	blankscreen.bmp	square.bmp
24	real_b	real_bottomleft_same_b	11	481	18	mask.bmp	blankscreen.bmp	wmd10.bmp	blankscreen.bmp	square.bmp
24	real_b	real_topright_diff_b	12	601	18	mask.bmp	blankscreen.bmp	wmn7.bmp	blankscreen.bmp	circle.bmp
24	real_b	real_topleft_diff_b	13	604	18	mask.bmp	blankscreen.bmp	wfd7.bmp	blankscreen.bmp	square.bmp
24	real_b	real_bottomleft_diff_b	14	551	18	mask.bmp	blankscreen.bmp	wmn8.bmp	blankscreen.bmp	square.bmp
24	real_b	real_topleft_same_b	15	540	23	mask.bmp	blankscreen.bmp	wmn9.bmp	blankscreen.bmp	circle.bmp
24	real_b	real_bottomleft_diff_b	16	858	23	mask.bmp	blankscreen.bmp	wfn7.bmp	blankscreen.bmp	square.bmp
24	real_b	real_bottomright_diff_b	17	939	18	mask.bmp	blankscreen.bmp	wmd7.bmp	blankscreen.bmp	circle.bmp
24	real_b	real_bottomright_same_b	18	745	23	mask.bmp	blankscreen.bmp	wfn10.bmp	blankscreen.bmp	square.bmp
24	real_b	real_topright_same_b	19	1199	23	mask.bmp	blankscreen.bmp	wmn10.bmp	blankscreen.bmp	square.bmp
24	real_b	real_topleft_same_b	20	690	18	mask.bmp	blankscreen.bmp	wmd9.bmp	blankscreen.bmp	circle.bmp
24	real_c	real_bottomleft_diff_c	1	930	23	mask.bmp	blankscreen.bmp	wfd4.bmp	blankscreen.bmp	square.bmp
24	real_c	real_topright_same_c	2	528	23	mask.bmp	blankscreen.bmp	wmd1.bmp	blankscreen.bmp	square.bmp
24	real_c	real_topleft_diff_c	3	438	23	mask.bmp	blankscreen.bmp	wfn4.bmp	blankscreen.bmp	square.bmp
24	real_c	real_bottomleft_diff_c	4	616	23	mask.bmp	blankscreen.bmp	wmd5.bmp	blankscreen.bmp	square.bmp
24	real_c	real_topright_diff_c	5	562	23	mask.bmp	blankscreen.bmp	wfn5.bmp	blankscreen.bmp	square.bmp
24	real_c	real_topright_diff_c	6	647	23	mask.bmp	blankscreen.bmp	wmd4.bmp	blankscreen.bmp	square.bmp
24	real_c	real_bottomright_same_c	7	504	18	mask.bmp	blankscreen.bmp	wmn2.bmp	blankscreen.bmp	circle.bmp
24	real_c	real_topleft_same_c	8	479	23	mask.bmp	blankscreen.bmp	wfd1.bmp	blankscreen.bmp	circle.bmp
24	real_c	real_bottomright_diff_c	9	727	23	mask.bmp	blankscreen.bmp	wmn4.bmp	blankscreen.bmp	square.bmp
24	real_c	real_topleft_same_c	10	853	23	mask.bmp	blankscreen.bmp	wfn1.bmp	blankscreen.bmp	square.bmp
24	real_c	real_bottomleft_same_c	11	486	18	mask.bmp	blankscreen.bmp	wfd2.bmp	blankscreen.bmp	circle.bmp
24	real_c	real_topright_diff_c	12	742	18	mask.bmp	blankscreen.bmp	wmn3.bmp	blankscreen.bmp	circle.bmp
24	real_c	real_topright_same_c	13	684	18	mask.bmp	blankscreen.bmp	wfn2.bmp	blankscreen.bmp	circle.bmp
24	real_c	real_bottomleft_diff_c	14	644	18	mask.bmp	blankscreen.bmp	wfn3.bmp	blankscreen.bmp	circle.bmp
24	real_c	real_bottomright_diff_c	15	446	23	mask.bmp	blankscreen.bmp	wfd5.bmp	blankscreen.bmp	square.bmp
24	real_c	real_bottomright_same_c	16	752	23	mask.bmp	blankscreen.bmp	wmd2.bmp	blankscreen.bmp	square.bmp
24	real_c	real_topleft_diff_c	17	621	18	mask.bmp	blankscreen.bmp	wmn5.bmp	blankscreen.bmp	circle.bmp
24	real_c	real_topleft_diff_c	18	567	23	mask.bmp	blankscreen.bmp	wfd3.bmp	blankscreen.bmp	square.bmp
24	real_c	real_bottomright_diff_c	19	707	18	mask.bmp	blankscreen.bmp	wmd3.bmp	blankscreen.bmp	square.bmp
24	real_c	real_bottomleft_same_c	20	563	18	mask.bmp	blankscreen.bmp	wmn1.bmp	blankscreen.bmp	square.bmp
24	real_d	real_topright_diff_d	1	539	23	mask.bmp	blankscreen.bmp	wfd9.bmp	blankscreen.bmp	circle.bmp
24	real_d	real_topright_diff_d	2	464	18	mask.bmp	blankscreen.bmp	wmd10.bmp	blankscreen.bmp	square.bmp
24	real_d	real_bottomright_diff_d	3	529	23	mask.bmp	blankscreen.bmp	wfn9.bmp	blankscreen.bmp	square.bmp
24	real_d	real_bottomleft_diff_d	4	575	18	mask.bmp	blankscreen.bmp	wmn9.bmp	blankscreen.bmp	circle.bmp
24	real_d	real_bottomright_diff_d	5	595	18	mask.bmp	blankscreen.bmp	wfd8.bmp	blankscreen.bmp	circle.bmp
24	real_d	real_bottomright_diff_d	6	415	23	mask.bmp	blankscreen.bmp	wmn10.bmp	blankscreen.bmp	square.bmp
24	real_d	real_topleft_diff_d	7	626	23	mask.bmp	blankscreen.bmp	wmn8.bmp	blankscreen.bmp	circle.bmp
24	real_d	real_bottomleft_same_d	8	684	18	mask.bmp	blankscreen.bmp	wfn6.bmp	blankscreen.bmp	circle.bmp
24	real_d	real_topleft_diff_d	9	604	23	mask.bmp	blankscreen.bmp	wmd9.bmp	blankscreen.bmp	circle.bmp
24	real_d	real_bottomleft_diff_d	10	983	23	mask.bmp	blankscreen.bmp	wmd8.bmp	blankscreen.bmp	square.bmp
24	real_d	real_topright_diff_d	11	587	18	mask.bmp	blankscreen.bmp	wfn8.bmp	blankscreen.bmp	circle.bmp
24	real_d	real_bottomleft_diff_d	12	575	23	mask.bmp	blankscreen.bmp	wfd10.bmp	blankscreen.bmp	circle.bmp
24	real_d	real_bottomleft_same_d	13	715	18	mask.bmp	blankscreen.bmp	wmn7.bmp	blankscreen.bmp	square.bmp
24	real_d	real_topleft_same_d	14	714	23	mask.bmp	blankscreen.bmp	wmd6.bmp	blankscreen.bmp	square.bmp
24	real_d	real_bottomright_same_d	15	640	18	mask.bmp	blankscreen.bmp	wfd7.bmp	blankscreen.bmp	circle.bmp
24	real_d	real_topleft_diff_d	16	426	23	mask.bmp	blankscreen.bmp	wfn10.bmp	blankscreen.bmp	circle.bmp
24	real_d	real_topright_same_d	17	676	23	mask.bmp	blankscreen.bmp	wmd7.bmp	blankscreen.bmp	square.bmp
24	real_d	real_topright_same_d	18	437	18	mask.bmp	blankscreen.bmp	wfd6.bmp	blankscreen.bmp	circle.bmp
24	real_d	real_bottomright_same_d	19	1215	23	mask.bmp	blankscreen.bmp	wfn7.bmp	blankscreen.bmp	square.bmp
24	real_d	real_topleft_same_d	20	593	18	mask.bmp	blankscreen.bmp	wmn6.bmp	blankscreen.bmp	circle.bmp
31	practice	practice_topleft_same	1	808	23	mask.bmp	blankscreen.bmp	practice2.jpg	blankscreen.bmp	square.bmp
31	practice	practice_bottomleft_same	2	707	18	mask.bmp	blankscreen.bmp	practice5.jpg	blankscreen.bmp	circle.bmp
31	practice	practice_topleft_diff	3	898	23	mask.bmp	blankscreen.bmp	practice9.jpg	blankscreen.bmp	square.bmp
31	practice	practice_bottomright_same	4	626	23	mask.bmp	blankscreen.bmp	practice8.jpg	blankscreen.bmp	square.bmp
31	practice	practice_bottomleft_same	5	580	23	mask.bmp	blankscreen.bmp	practice6.jpg	blankscreen.bmp	square.bmp
31	practice	practice_topright_same	6	568	23	mask.bmp	blankscreen.bmp	practice3.jpg	blankscreen.bmp	square.bmp
31	practice	practice_bottomleft_diff	7	500	18	mask.bmp	blankscreen.bmp	practice11.jpg	blankscreen.bmp	circle.bmp
31	practice	practice_bottomright_same	8	612	18	mask.bmp	blankscreen.bmp	practice7.jpg	blankscreen.bmp	circle.bmp
31	practice	practice_topright_same	9	607	18	mask.bmp	blankscreen.bmp	practice4.jpg	blankscreen.bmp	circle.bmp
31	practice	practice_topleft_same	10	490	18	mask.bmp	blankscreen.bmp	practice1.jpg	blankscreen.bmp	circle.bmp
31	practice	practice_bottomright_diff	11	554	23	mask.bmp	blankscreen.bmp	practice12.jpg	blankscreen.bmp	square.bmp
31	practice	practice_topright_diff	12	543	23	mask.bmp	blankscreen.bmp	practice10.jpg	blankscreen.bmp	square.bmp
31	real_a	real_topleft_same_a	1	1171	18	mask.bmp	blankscreen.bmp	wfd4.bmp	blankscreen.bmp	circle.bmp
31	real_a	real_bottomright_diff_a	2	639	23	mask.bmp	blankscreen.bmp	wmd1.bmp	blankscreen.bmp	square.bmp
31	real_a	real_topright_diff_a	3	497	18	mask.bmp	blankscreen.bmp	wmn1.bmp	blankscreen.bmp	circle.bmp
31	real_a	real_topleft_diff_a	4	616	23	mask.bmp	blankscreen.bmp	wfn3.bmp	blankscreen.bmp	square.bmp
31	real_a	real_bottomright_diff_a	5	547	18	mask.bmp	blankscreen.bmp	wmn3.bmp	blankscreen.bmp	circle.bmp
31	real_a	real_topleft_diff_a	6	536	23	mask.bmp	blankscreen.bmp	wmd2.bmp	blankscreen.bmp	square.bmp
31	real_a	real_bottomleft_diff_a	7	606	23	mask.bmp	blankscreen.bmp	wfd3.bmp	blankscreen.bmp	square.bmp
31	real_a	real_bottomright_diff_a	8	593	23	mask.bmp	blankscreen.bmp	wfn2.bmp	blankscreen.bmp	square.bmp
31	real_a	real_topright_same_a	9	549	18	mask.bmp	blankscreen.bmp	wfd5.bmp	blankscreen.bmp	circle.bmp
31	real_a	real_topleft_diff_a	10	466	23	mask.bmp	blankscreen.bmp	wfd1.bmp	blankscreen.bmp	square.bmp
31	real_a	real_topright_diff_a	11	514	23	mask.bmp	blankscreen.bmp	wfd2.bmp	blankscreen.bmp	square.bmp
31	real_a	real_bottomright_same_a	12	465	23	mask.bmp	blankscreen.bmp	wmn5.bmp	blankscreen.bmp	square.bmp
31	real_a	real_topright_same_a	13	769	23	mask.bmp	blankscreen.bmp	wmn4.bmp	blankscreen.bmp	square.bmp
31	real_a	real_topright_diff_a	14	1230	23	mask.bmp	blankscreen.bmp	wmd3.bmp	blankscreen.bmp	square.bmp
31	real_a	real_bottomright_same_a	15	408	18	mask.bmp	blankscreen.bmp	wmd5.bmp	blankscreen.bmp	circle.bmp
31	real_a	real_bottomleft_same_a	16	475	18	mask.bmp	blankscreen.bmp	wmd4.bmp	blankscreen.bmp	circle.bmp
31	real_a	real_bottomleft_same_a	17	387	23	mask.bmp	blankscreen.bmp	wfn5.bmp	blankscreen.bmp	square.bmp
31	real_a	real_bottomleft_diff_a	18	479	18	mask.bmp	blankscreen.bmp	wfn1.bmp	blankscreen.bmp	circle.bmp
31	real_a	real_topleft_same_a	19	496	23	mask.bmp	blankscreen.bmp	wfn4.bmp	blankscreen.bmp	square.bmp
31	real_a	real_bottomleft_diff_a	20	656	18	mask.bmp	blankscreen.bmp	wmn2.bmp	blankscreen.bmp	circle.bmp
31	real_b	real_topright_same_b	1	490	23	mask.bmp	blankscreen.bmp	wmn10.bmp	blankscreen.bmp	square.bmp
31	real_b	real_bottomleft_diff_b	2	818	18	mask.bmp	blankscreen.bmp	wmd6.bmp	blankscreen.bmp	circle.bmp
31	real_b	real_bottomleft_same_b	3	460	23	mask.bmp	blankscreen.bmp	wmd10.bmp	blankscreen.bmp	square.bmp
31	real_b	real_bottomleft_diff_b	4	1005	23	mask.bmp	blankscreen.bmp	wmn8.bmp	blankscreen.bmp	square.bmp
31	real_b	real_bottomright_diff_b	5	625	23	mask.bmp	blankscreen.bmp	wfn8.bmp	blankscreen.bmp	square.bmp
31	real_b	real_topleft_diff_b	6	587	23	mask.bmp	blankscreen.bmp	wmn6.bmp	blankscreen.bmp	square.bmp
31	real_b	real_topright_diff_b	7	671	18	mask.bmp	blankscreen.bmp	wfn6.bmp	blankscreen.bmp	circle.bmp
31	real_b	real_bottomright_diff_b	8	615	23	mask.bmp	blankscreen.bmp	wmd7.bmp	blankscreen.bmp	square.bmp
31	real_b	real_topleft_diff_b	9	730	18	mask.bmp	blankscreen.bmp	wmd8.bmp	blankscreen.bmp	circle.bmp
31	real_b	real_topleft_same_b	10	872	18	mask.bmp	blankscreen.bmp	wmd9.bmp	blankscreen.bmp	circle.bmp
31	real_b	real_bottomleft_diff_b	11	552	23	mask.bmp	blankscreen.bmp	wfn7.bmp	blankscreen.bmp	square.bmp
31	real_b	real_bottomright_same_b	12	493	23	mask.bmp	blankscreen.bmp	wfd10.bmp	blankscreen.bmp	square.bmp
31	real_b	real_topright_same_b	13	733	23	mask.bmp	blankscreen.bmp	wfn9.bmp	blankscreen.bmp	square.bmp
31	real_b	real_bottomright_same_b	14	451	23	mask.bmp	blankscreen.bmp	wfn10.bmp	blankscreen.bmp	square.bmp
31	real_b	real_topleft_diff_b	15	764	23	mask.bmp	blankscreen.bmp	wfd7.bmp	blankscreen.bmp	square.bmp
31	real_b	real_topright_diff_b	16	561	23	mask.bmp	blankscreen.bmp	wmn7.bmp	blankscreen.bmp	square.bmp
31	real_b	real_bottomleft_same_b	17	526	18	mask.bmp	blankscreen.bmp	wfd9.bmp	blankscreen.bmp	circle.bmp
31	real_b	real_bottomright_diff_b	18	540	23	mask.bmp	blankscreen.bmp	wfd6.bmp	blankscreen.bmp	square.bmp
31	real_b	real_topleft_same_b	19	306	18	mask.bmp	blankscreen.bmp	wmn9.bmp	blankscreen.bmp	circle.bmp
31	real_b	real_topright_diff_b	20	393	18	mask.bmp	blankscreen.bmp	wfd8.bmp	blankscreen.bmp	circle.bmp
31	real_c	real_bottomleft_diff_c	1	1615	18	mask.bmp	blankscreen.bmp	wfn3.bmp	blankscreen.bmp	circle.bmp
31	real_c	real_topright_diff_c	2	506	18	mask.bmp	blankscreen.bmp	wfn5.bmp	blankscreen.bmp	circle.bmp
31	real_c	real_bottomleft_same_c	3	473	18	mask.bmp	blankscreen.bmp	wfd2.bmp	blankscreen.bmp	circle.bmp
31	real_c	real_topright_same_c	4	425	18	mask.bmp	blankscreen.bmp	wfn2.bmp	blankscreen.bmp	circle.bmp
31	real_c	real_bottomleft_diff_c	5	428	23	mask.bmp	blankscreen.bmp	wfd4.bmp	blankscreen.bmp	square.bmp
31	real_c	real_topleft_same_c	6	486	23	mask.bmp	blankscreen.bmp	wfd1.bmp	blankscreen.bmp	square.bmp
31	real_c	real_topright_diff_c	7	598	23	mask.bmp	blankscreen.bmp	wmd4.bmp	blankscreen.bmp	square.bmp
31	real_c	real_topleft_diff_c	8	521	18	mask.bmp	blankscreen.bmp	wfd3.bmp	blankscreen.bmp	circle.bmp
31	real_c	real_bottomright_diff_c	9	488	23	mask.bmp	blankscreen.bmp	wmn4.bmp	blankscreen.bmp	square.bmp
31	real_c	real_topright_diff_c	10	599	18	mask.bmp	blankscreen.bmp	wmn3.bmp	blankscreen.bmp	circle.bmp
31	real_c	real_topleft_same_c	11	1403	18	mask.bmp	blankscreen.bmp	wfn1.bmp	blankscreen.bmp	circle.bmp
31	real_c	real_bottomright_same_c	12	422	18	mask.bmp	blankscreen.bmp	wmn2.bmp	blankscreen.bmp	circle.bmp
31	real_c	real_bottomright_diff_c	13	592	18	mask.bmp	blankscreen.bmp	wfd5.bmp	blankscreen.bmp	circle.bmp
31	real_c	real_bottomleft_same_c	14	500	23	mask.bmp	blankscreen.bmp	wmn1.bmp	blankscreen.bmp	square.bmp
31	real_c	real_topleft_diff_c	15	652	23	mask.bmp	blankscreen.bmp	wfn4.bmp	blankscreen.bmp	square.bmp
31	real_c	real_topright_same_c	16	460	18	mask.bmp	blankscreen.bmp	wmd1.bmp	blankscreen.bmp	circle.bmp
31	real_c	real_topleft_diff_c	17	526	23	mask.bmp	blankscreen.bmp	wmn5.bmp	blankscreen.bmp	square.bmp
31	real_c	real_bottomright_same_c	18	340	18	mask.bmp	blankscreen.bmp	wmd2.bmp	blankscreen.bmp	circle.bmp
31	real_c	real_bottomleft_diff_c	19	434	18	mask.bmp	blankscreen.bmp	wmd5.bmp	blankscreen.bmp	circle.bmp
31	real_c	real_bottomright_diff_c	20	476	23	mask.bmp	blankscreen.bmp	wmd3.bmp	blankscreen.bmp	circle.bmp
31	real_d	real_bottomleft_diff_d	1	399	23	mask.bmp	blankscreen.bmp	wmd8.bmp	blankscreen.bmp	square.bmp
31	real_d	real_bottomleft_same_d	2	314	18	mask.bmp	blankscreen.bmp	wfn6.bmp	blankscreen.bmp	circle.bmp
31	real_d	real_topright_diff_d	3	529	18	mask.bmp	blankscreen.bmp	wfd9.bmp	blankscreen.bmp	circle.bmp
31	real_d	real_topright_same_d	4	407	18	mask.bmp	blankscreen.bmp	wmd7.bmp	blankscreen.bmp	circle.bmp
31	real_d	real_bottomleft_same_d	5	306	23	mask.bmp	blankscreen.bmp	wmn7.bmp	blankscreen.bmp	square.bmp
31	real_d	real_topleft_diff_d	6	401	23	mask.bmp	blankscreen.bmp	wmn8.bmp	blankscreen.bmp	square.bmp
31	real_d	real_topleft_same_d	7	452	23	mask.bmp	blankscreen.bmp	wmn6.bmp	blankscreen.bmp	square.bmp
31	real_d	real_bottomright_same_d	8	477	23	mask.bmp	blankscreen.bmp	wfd7.bmp	blankscreen.bmp	square.bmp
31	real_d	real_bottomright_diff_d	9	574	18	mask.bmp	blankscreen.bmp	wfd8.bmp	blankscreen.bmp	circle.bmp
31	real_d	real_bottomleft_diff_d	10	362	23	mask.bmp	blankscreen.bmp	wmn9.bmp	blankscreen.bmp	square.bmp
31	real_d	real_bottomleft_diff_d	11	487	18	mask.bmp	blankscreen.bmp	wfd10.bmp	blankscreen.bmp	square.bmp
31	real_d	real_bottomright_diff_d	12	679	18	mask.bmp	blankscreen.bmp	wmn10.bmp	blankscreen.bmp	circle.bmp
31	real_d	real_topleft_same_d	13	823	18	mask.bmp	blankscreen.bmp	wmd6.bmp	blankscreen.bmp	circle.bmp
31	real_d	real_topleft_diff_d	14	370	23	mask.bmp	blankscreen.bmp	wfn10.bmp	blankscreen.bmp	square.bmp
31	real_d	real_topright_diff_d	15	750	23	mask.bmp	blankscreen.bmp	wmd10.bmp	blankscreen.bmp	square.bmp
31	real_d	real_bottomright_diff_d	16	475	23	mask.bmp	blankscreen.bmp	wfn9.bmp	blankscreen.bmp	square.bmp
31	real_d	real_topleft_diff_d	17	604	18	mask.bmp	blankscreen.bmp	wmd9.bmp	blankscreen.bmp	circle.bmp
31	real_d	real_topright_same_d	18	551	18	mask.bmp	blankscreen.bmp	wfd6.bmp	blankscreen.bmp	circle.bmp
31	real_d	real_bottomright_same_d	19	628	18	mask.bmp	blankscreen.bmp	wfn7.bmp	blankscreen.bmp	circle.bmp
31	real_d	real_topright_diff_d	20	655	18	mask.bmp	blankscreen.bmp	wfn8.bmp	blankscreen.bmp	circle.bmp
35	practice	practice_bottomleft_same	1	2071	23	mask.bmp	blankscreen.bmp	practice6.jpg	blankscreen.bmp	square.bmp
35	practice	practice_bottomright_same	2	1135	18	mask.bmp	blankscreen.bmp	practice8.jpg	blankscreen.bmp	circle.bmp
35	practice	practice_bottomright_same	3	725	23	mask.bmp	blankscreen.bmp	practice7.jpg	blankscreen.bmp	square.bmp
35	practice	practice_topright_same	4	1308	23	mask.bmp	blankscreen.bmp	practice4.jpg	blankscreen.bmp	square.bmp
35	practice	practice_bottomleft_diff	5	755	18	mask.bmp	blankscreen.bmp	practice11.jpg	blankscreen.bmp	circle.bmp
35	practice	practice_bottomleft_same	6	1064	23	mask.bmp	blankscreen.bmp	practice5.jpg	blankscreen.bmp	square.bmp
35	practice	practice_topleft_same	7	1097	18	mask.bmp	blankscreen.bmp	practice2.jpg	blankscreen.bmp	circle.bmp
35	practice	practice_topleft_same	8	768	18	mask.bmp	blankscreen.bmp	practice1.jpg	blankscreen.bmp	circle.bmp
35	practice	practice_topleft_diff	9	636	18	mask.bmp	blankscreen.bmp	practice9.jpg	blankscreen.bmp	circle.bmp
35	practice	practice_topright_same	10	798	23	mask.bmp	blankscreen.bmp	practice3.jpg	blankscreen.bmp	square.bmp
35	practice	practice_bottomright_diff	11	1097	23	mask.bmp	blankscreen.bmp	practice12.jpg	blankscreen.bmp	square.bmp
35	practice	practice_topright_diff	12	537	18	mask.bmp	blankscreen.bmp	practice10.jpg	blankscreen.bmp	circle.bmp
35	real_a	real_bottomright_diff_a	1	665	23	mask.bmp	blankscreen.bmp	wmd1.bmp	blankscreen.bmp	square.bmp
35	real_a	real_topright_same_a	2	705	23	mask.bmp	blankscreen.bmp	wmn4.bmp	blankscreen.bmp	square.bmp
35	real_a	real_topright_diff_a	3	488	23	mask.bmp	blankscreen.bmp	wmd3.bmp	blankscreen.bmp	square.bmp
35	real_a	real_bottomleft_diff_a	4	560	23	mask.bmp	blankscreen.bmp	wfd3.bmp	blankscreen.bmp	square.bmp
35	real_a	real_bottomright_same_a	5	453	23	mask.bmp	blankscreen.bmp	wmn5.bmp	blankscreen.bmp	square.bmp
35	real_a	real_topright_diff_a	6	566	18	mask.bmp	blankscreen.bmp	wfd2.bmp	blankscreen.bmp	circle.bmp
35	real_a	real_bottomright_same_a	7	595	18	mask.bmp	blankscreen.bmp	wmd5.bmp	blankscreen.bmp	circle.bmp
35	real_a	real_topright_diff_a	8	743	18	mask.bmp	blankscreen.bmp	wmn1.bmp	blankscreen.bmp	circle.bmp
35	real_a	real_topleft_same_a	9	741	18	mask.bmp	blankscreen.bmp	wfd4.bmp	blankscreen.bmp	circle.bmp
35	real_a	real_topleft_diff_a	10	618	18	mask.bmp	blankscreen.bmp	wfn3.bmp	blankscreen.bmp	circle.bmp
35	real_a	real_topleft_same_a	11	573	23	mask.bmp	blankscreen.bmp	wfn4.bmp	blankscreen.bmp	square.bmp
35	real_a	real_bottomleft_same_a	12	657	18	mask.bmp	blankscreen.bmp	wmd4.bmp	blankscreen.bmp	circle.bmp
35	real_a	real_bottomright_diff_a	13	435	23	mask.bmp	blankscreen.bmp	wmn3.bmp	blankscreen.bmp	square.bmp
35	real_a	real_topleft_diff_a	14	732	23	mask.bmp	blankscreen.bmp	wmd2.bmp	blankscreen.bmp	square.bmp
35	real_a	real_topleft_diff_a	15	666	18	mask.bmp	blankscreen.bmp	wfd1.bmp	blankscreen.bmp	circle.bmp
35	real_a	real_topright_same_a	16	587	23	mask.bmp	blankscreen.bmp	wfd5.bmp	blankscreen.bmp	square.bmp
35	real_a	real_bottomleft_diff_a	17	815	23	mask.bmp	blankscreen.bmp	wmn2.bmp	blankscreen.bmp	square.bmp
35	real_a	real_bottomright_diff_a	18	641	23	mask.bmp	blankscreen.bmp	wfn2.bmp	blankscreen.bmp	square.bmp
35	real_a	real_bottomleft_diff_a	19	611	18	mask.bmp	blankscreen.bmp	wfn1.bmp	blankscreen.bmp	circle.bmp
35	real_a	real_bottomleft_same_a	20	534	23	mask.bmp	blankscreen.bmp	wfn5.bmp	blankscreen.bmp	square.bmp
35	real_b	real_topright_diff_b	1	683	18	mask.bmp	blankscreen.bmp	wmn7.bmp	blankscreen.bmp	circle.bmp
35	real_b	real_bottomleft_diff_b	2	595	23	mask.bmp	blankscreen.bmp	wmd6.bmp	blankscreen.bmp	circle.bmp
35	real_b	real_topleft_same_b	3	1079	18	mask.bmp	blankscreen.bmp	wmd9.bmp	blankscreen.bmp	square.bmp
35	real_b	real_topright_same_b	4	647	23	mask.bmp	blankscreen.bmp	wmn10.bmp	blankscreen.bmp	square.bmp
35	real_b	real_topleft_diff_b	5	568	23	mask.bmp	blankscreen.bmp	wmn6.bmp	blankscreen.bmp	circle.bmp
35	real_b	real_bottomright_diff_b	6	596	23	mask.bmp	blankscreen.bmp	wfn8.bmp	blankscreen.bmp	square.bmp
35	real_b	real_bottomright_diff_b	7	1024	23	mask.bmp	blankscreen.bmp	wmd7.bmp	blankscreen.bmp	square.bmp
35	real_b	real_topright_diff_b	8	538	23	mask.bmp	blankscreen.bmp	wfd8.bmp	blankscreen.bmp	square.bmp
35	real_b	real_topright_same_b	9	656	23	mask.bmp	blankscreen.bmp	wfn9.bmp	blankscreen.bmp	square.bmp
35	real_b	real_topright_diff_b	10	1122	18	mask.bmp	blankscreen.bmp	wfn6.bmp	blankscreen.bmp	circle.bmp
35	real_b	real_topleft_same_b	11	568	23	mask.bmp	blankscreen.bmp	wmn9.bmp	blankscreen.bmp	square.bmp
35	real_b	real_bottomleft_same_b	12	580	23	mask.bmp	blankscreen.bmp	wfd9.bmp	blankscreen.bmp	square.bmp
35	real_b	real_bottomright_diff_b	13	456	18	mask.bmp	blankscreen.bmp	wfd6.bmp	blankscreen.bmp	circle.bmp
35	real_b	real_bottomleft_diff_b	14	641	18	mask.bmp	blankscreen.bmp	wmn8.bmp	blankscreen.bmp	circle.bmp
35	real_b	real_bottomright_same_b	15	595	18	mask.bmp	blankscreen.bmp	wfd10.bmp	blankscreen.bmp	circle.bmp
35	real_b	real_bottomleft_diff_b	16	503	23	mask.bmp	blankscreen.bmp	wfn7.bmp	blankscreen.bmp	square.bmp
35	real_b	real_topleft_diff_b	17	478	23	mask.bmp	blankscreen.bmp	wmd8.bmp	blankscreen.bmp	square.bmp
35	real_b	real_topleft_diff_b	18	1038	18	mask.bmp	blankscreen.bmp	wfd7.bmp	blankscreen.bmp	circle.bmp
35	real_b	real_bottomright_same_b	19	728	23	mask.bmp	blankscreen.bmp	wfn10.bmp	blankscreen.bmp	square.bmp
35	real_b	real_bottomleft_same_b	20	751	23	mask.bmp	blankscreen.bmp	wmd10.bmp	blankscreen.bmp	square.bmp
35	real_c	real_topright_diff_c	1	1485	18	mask.bmp	blankscreen.bmp	wfn5.bmp	blankscreen.bmp	circle.bmp
35	real_c	real_bottomright_diff_c	2	621	23	mask.bmp	blankscreen.bmp	wmd3.bmp	blankscreen.bmp	square.bmp
35	real_c	real_bottomleft_same_c	3	751	18	mask.bmp	blankscreen.bmp	wfd2.bmp	blankscreen.bmp	circle.bmp
35	real_c	real_bottomleft_diff_c	4	501	23	mask.bmp	blankscreen.bmp	wfd4.bmp	blankscreen.bmp	circle.bmp
35	real_c	real_topleft_diff_c	5	796	23	mask.bmp	blankscreen.bmp	wfn4.bmp	blankscreen.bmp	square.bmp
35	real_c	real_bottomright_diff_c	6	719	23	mask.bmp	blankscreen.bmp	wmn4.bmp	blankscreen.bmp	square.bmp
35	real_c	real_topright_diff_c	7	758	18	mask.bmp	blankscreen.bmp	wmn3.bmp	blankscreen.bmp	circle.bmp
35	real_c	real_topleft_same_c	8	675	18	mask.bmp	blankscreen.bmp	wfd1.bmp	blankscreen.bmp	circle.bmp
35	real_c	real_bottomleft_diff_c	9	596	18	mask.bmp	blankscreen.bmp	wfn3.bmp	blankscreen.bmp	circle.bmp
35	real_c	real_topleft_diff_c	10	495	23	mask.bmp	blankscreen.bmp	wfd3.bmp	blankscreen.bmp	square.bmp
35	real_c	real_topright_same_c	11	1839	23	mask.bmp	blankscreen.bmp	wfn2.bmp	blankscreen.bmp	square.bmp
35	real_c	real_topleft_diff_c	12	745	18	mask.bmp	blankscreen.bmp	wmn5.bmp	blankscreen.bmp	circle.bmp
35	real_c	real_topleft_same_c	13	750	18	mask.bmp	blankscreen.bmp	wfn1.bmp	blankscreen.bmp	circle.bmp
35	real_c	real_bottomright_same_c	14	484	18	mask.bmp	blankscreen.bmp	wmn2.bmp	blankscreen.bmp	circle.bmp
35	real_c	real_bottomright_diff_c	15	755	18	mask.bmp	blankscreen.bmp	wfd5.bmp	blankscreen.bmp	circle.bmp
35	real_c	real_topright_diff_c	16	793	23	mask.bmp	blankscreen.bmp	wmd4.bmp	blankscreen.bmp	square.bmp
35	real_c	real_bottomright_same_c	17	668	23	mask.bmp	blankscreen.bmp	wmd2.bmp	blankscreen.bmp	square.bmp
35	real_c	real_bottomleft_diff_c	18	1165	23	mask.bmp	blankscreen.bmp	wmd5.bmp	blankscreen.bmp	square.bmp
35	real_c	real_bottomleft_same_c	19	722	23	mask.bmp	blankscreen.bmp	wmn1.bmp	blankscreen.bmp	square.bmp
35	real_c	real_topright_same_c	20	784	18	mask.bmp	blankscreen.bmp	wmd1.bmp	blankscreen.bmp	circle.bmp
35	real_d	real_topleft_same_d	1	857	18	mask.bmp	blankscreen.bmp	wmd6.bmp	blankscreen.bmp	circle.bmp
35	real_d	real_bottomleft_same_d	2	1018	23	mask.bmp	blankscreen.bmp	wfn6.bmp	blankscreen.bmp	square.bmp
35	real_d	real_bottomright_diff_d	3	972	18	mask.bmp	blankscreen.bmp	wfn9.bmp	blankscreen.bmp	circle.bmp
35	real_d	real_topright_diff_d	4	953	23	mask.bmp	blankscreen.bmp	wfn8.bmp	blankscreen.bmp	square.bmp
35	real_d	real_topright_same_d	5	566	18	mask.bmp	blankscreen.bmp	wfd6.bmp	blankscreen.bmp	circle.bmp
35	real_d	real_bottomright_same_d	6	395	23	mask.bmp	blankscreen.bmp	wfd7.bmp	blankscreen.bmp	square.bmp
35	real_d	real_bottomleft_diff_d	7	734	18	mask.bmp	blankscreen.bmp	wfd10.bmp	blankscreen.bmp	circle.bmp
35	real_d	real_topright_diff_d	8	884	23	mask.bmp	blankscreen.bmp	wmd10.bmp	blankscreen.bmp	square.bmp
35	real_d	real_bottomright_diff_d	9	724	18	mask.bmp	blankscreen.bmp	wfd8.bmp	blankscreen.bmp	circle.bmp
35	real_d	real_bottomright_same_d	10	603	23	mask.bmp	blankscreen.bmp	wfn7.bmp	blankscreen.bmp	square.bmp
35	real_d	real_topright_same_d	11	1182	18	mask.bmp	blankscreen.bmp	wmd7.bmp	blankscreen.bmp	circle.bmp
35	real_d	real_bottomright_diff_d	12	666	23	mask.bmp	blankscreen.bmp	wmn10.bmp	blankscreen.bmp	square.bmp
35	real_d	real_topleft_diff_d	13	482	18	mask.bmp	blankscreen.bmp	wmn8.bmp	blankscreen.bmp	circle.bmp
35	real_d	real_topleft_diff_d	14	1130	18	mask.bmp	blankscreen.bmp	wfn10.bmp	blankscreen.bmp	circle.bmp
35	real_d	real_bottomleft_same_d	15	1248	23	mask.bmp	blankscreen.bmp	wmn7.bmp	blankscreen.bmp	square.bmp
35	real_d	real_topleft_diff_d	16	2841	23	mask.bmp	blankscreen.bmp	wmd9.bmp	blankscreen.bmp	square.bmp
35	real_d	real_topleft_same_d	17	795	18	mask.bmp	blankscreen.bmp	wmn6.bmp	blankscreen.bmp	circle.bmp
35	real_d	real_bottomleft_diff_d	18	895	18	mask.bmp	blankscreen.bmp	wmn9.bmp	blankscreen.bmp	square.bmp
35	real_d	real_bottomleft_diff_d	19	799	23	mask.bmp	blankscreen.bmp	wmd8.bmp	blankscreen.bmp	square.bmp
35	real_d	real_topright_diff_d	20	1394	23	mask.bmp	blankscreen.bmp	wfd9.bmp	blankscreen.bmp	square.bmp
39	practice	practice_bottomleft_same	1	773	18	mask.bmp	blankscreen.bmp	practice6.jpg	blankscreen.bmp	circle.bmp
39	practice	practice_topright_diff	2	538	23	mask.bmp	blankscreen.bmp	practice10.jpg	blankscreen.bmp	square.bmp
39	practice	practice_topright_same	3	408	18	mask.bmp	blankscreen.bmp	practice3.jpg	blankscreen.bmp	circle.bmp
39	practice	practice_bottomright_same	4	483	18	mask.bmp	blankscreen.bmp	practice8.jpg	blankscreen.bmp	circle.bmp
39	practice	practice_bottomleft_same	5	403	18	mask.bmp	blankscreen.bmp	practice5.jpg	blankscreen.bmp	circle.bmp
39	practice	practice_topleft_same	6	430	18	mask.bmp	blankscreen.bmp	practice1.jpg	blankscreen.bmp	circle.bmp
39	practice	practice_topleft_diff	7	352	23	mask.bmp	blankscreen.bmp	practice9.jpg	blankscreen.bmp	square.bmp
39	practice	practice_topright_same	8	373	18	mask.bmp	blankscreen.bmp	practice4.jpg	blankscreen.bmp	circle.bmp
39	practice	practice_bottomleft_diff	9	417	23	mask.bmp	blankscreen.bmp	practice11.jpg	blankscreen.bmp	square.bmp
39	practice	practice_topleft_same	10	460	23	mask.bmp	blankscreen.bmp	practice2.jpg	blankscreen.bmp	square.bmp
39	practice	practice_bottomright_same	11	397	23	mask.bmp	blankscreen.bmp	practice7.jpg	blankscreen.bmp	square.bmp
39	practice	practice_bottomright_diff	12	480	23	mask.bmp	blankscreen.bmp	practice12.jpg	blankscreen.bmp	square.bmp
39	real_a	real_topright_same_a	1	338	18	mask.bmp	blankscreen.bmp	wfd5.bmp	blankscreen.bmp	circle.bmp
39	real_a	real_topleft_same_a	2	296	23	mask.bmp	blankscreen.bmp	wfd4.bmp	blankscreen.bmp	square.bmp
39	real_a	real_bottomleft_diff_a	3	431	23	mask.bmp	blankscreen.bmp	wfd3.bmp	blankscreen.bmp	square.bmp
39	real_a	real_bottomleft_diff_a	4	457	18	mask.bmp	blankscreen.bmp	wmn2.bmp	blankscreen.bmp	circle.bmp
39	real_a	real_topright_diff_a	5	362	23	mask.bmp	blankscreen.bmp	wmd3.bmp	blankscreen.bmp	square.bmp
39	real_a	real_topright_diff_a	6	327	18	mask.bmp	blankscreen.bmp	wfd2.bmp	blankscreen.bmp	circle.bmp
39	real_a	real_topleft_diff_a	7	357	23	mask.bmp	blankscreen.bmp	wfd1.bmp	blankscreen.bmp	square.bmp
39	real_a	real_topright_diff_a	8	434	23	mask.bmp	blankscreen.bmp	wmn1.bmp	blankscreen.bmp	square.bmp
39	real_a	real_bottomleft_same_a	9	324	23	mask.bmp	blankscreen.bmp	wmd4.bmp	blankscreen.bmp	square.bmp
39	real_a	real_bottomright_diff_a	10	442	23	mask.bmp	blankscreen.bmp	wfn2.bmp	blankscreen.bmp	square.bmp
39	real_a	real_bottomleft_same_a	11	420	23	mask.bmp	blankscreen.bmp	wfn5.bmp	blankscreen.bmp	square.bmp
39	real_a	real_bottomright_diff_a	12	439	23	mask.bmp	blankscreen.bmp	wmn3.bmp	blankscreen.bmp	square.bmp
39	real_a	real_topleft_diff_a	13	328	23	mask.bmp	blankscreen.bmp	wfn3.bmp	blankscreen.bmp	square.bmp
39	real_a	real_topleft_same_a	14	415	23	mask.bmp	blankscreen.bmp	wfn4.bmp	blankscreen.bmp	square.bmp
39	real_a	real_bottomright_same_a	15	377	23	mask.bmp	blankscreen.bmp	wmn5.bmp	blankscreen.bmp	square.bmp
39	real_a	real_bottomleft_diff_a	16	374	23	mask.bmp	blankscreen.bmp	wfn1.bmp	blankscreen.bmp	square.bmp
39	real_a	real_bottomright_same_a	17	362	18	mask.bmp	blankscreen.bmp	wmd5.bmp	blankscreen.bmp	circle.bmp
39	real_a	real_bottomright_diff_a	18	327	18	mask.bmp	blankscreen.bmp	wmd1.bmp	blankscreen.bmp	circle.bmp
39	real_a	real_topleft_diff_a	19	390	23	mask.bmp	blankscreen.bmp	wmd2.bmp	blankscreen.bmp	square.bmp
39	real_a	real_topright_same_a	20	330	23	mask.bmp	blankscreen.bmp	wmn4.bmp	blankscreen.bmp	square.bmp
39	real_b	real_topright_diff_b	1	449	23	mask.bmp	blankscreen.bmp	wmn7.bmp	blankscreen.bmp	square.bmp
39	real_b	real_topleft_diff_b	2	362	23	mask.bmp	blankscreen.bmp	wmd8.bmp	blankscreen.bmp	square.bmp
39	real_b	real_topleft_same_b	3	327	18	mask.bmp	blankscreen.bmp	wmn9.bmp	blankscreen.bmp	circle.bmp
39	real_b	real_bottomleft_same_b	4	317	18	mask.bmp	blankscreen.bmp	wmd10.bmp	blankscreen.bmp	circle.bmp
39	real_b	real_topright_diff_b	5	356	23	mask.bmp	blankscreen.bmp	wfd8.bmp	blankscreen.bmp	square.bmp
39	real_b	real_bottomright_diff_b	6	401	23	mask.bmp	blankscreen.bmp	wfn8.bmp	blankscreen.bmp	square.bmp
39	real_b	real_topright_same_b	7	292	23	mask.bmp	blankscreen.bmp	wfn9.bmp	blankscreen.bmp	square.bmp
39	real_b	real_bottomright_diff_b	8	396	18	mask.bmp	blankscreen.bmp	wfd6.bmp	blankscreen.bmp	circle.bmp
39	real_b	real_bottomleft_same_b	9	415	18	mask.bmp	blankscreen.bmp	wfd9.bmp	blankscreen.bmp	circle.bmp
39	real_b	real_topleft_diff_b	10	441	18	mask.bmp	blankscreen.bmp	wmn6.bmp	blankscreen.bmp	circle.bmp
39	real_b	real_bottomright_same_b	11	403	18	mask.bmp	blankscreen.bmp	wfn10.bmp	blankscreen.bmp	circle.bmp
39	real_b	real_bottomleft_diff_b	12	382	23	mask.bmp	blankscreen.bmp	wmn8.bmp	blankscreen.bmp	square.bmp
39	real_b	real_topleft_same_b	13	322	23	mask.bmp	blankscreen.bmp	wmd9.bmp	blankscreen.bmp	square.bmp
39	real_b	real_bottomright_same_b	14	321	23	mask.bmp	blankscreen.bmp	wfd10.bmp	blankscreen.bmp	square.bmp
39	real_b	real_topright_diff_b	15	399	23	mask.bmp	blankscreen.bmp	wfn6.bmp	blankscreen.bmp	square.bmp
39	real_b	real_bottomleft_diff_b	16	394	23	mask.bmp	blankscreen.bmp	wfn7.bmp	blankscreen.bmp	square.bmp
39	real_b	real_topright_same_b	17	294	23	mask.bmp	blankscreen.bmp	wmn10.bmp	blankscreen.bmp	square.bmp
39	real_b	real_topleft_diff_b	18	414	18	mask.bmp	blankscreen.bmp	wfd7.bmp	blankscreen.bmp	circle.bmp
39	real_b	real_bottomright_diff_b	19	424	23	mask.bmp	blankscreen.bmp	wmd7.bmp	blankscreen.bmp	square.bmp
39	real_b	real_bottomleft_diff_b	20	315	23	mask.bmp	blankscreen.bmp	wmd6.bmp	blankscreen.bmp	square.bmp
39	real_c	real_bottomleft_diff_c	1	443	18	mask.bmp	blankscreen.bmp	wfd4.bmp	blankscreen.bmp	circle.bmp
39	real_c	real_topright_diff_c	2	357	18	mask.bmp	blankscreen.bmp	wmn3.bmp	blankscreen.bmp	circle.bmp
39	real_c	real_topleft_diff_c	3	346	23	mask.bmp	blankscreen.bmp	wfn4.bmp	blankscreen.bmp	square.bmp
39	real_c	real_topleft_diff_c	4	375	18	mask.bmp	blankscreen.bmp	wfd3.bmp	blankscreen.bmp	circle.bmp
39	real_c	real_topleft_diff_c	5	308	23	mask.bmp	blankscreen.bmp	wmn5.bmp	blankscreen.bmp	square.bmp
39	real_c	real_bottomleft_diff_c	6	339	23	mask.bmp	blankscreen.bmp	wfn3.bmp	blankscreen.bmp	square.bmp
39	real_c	real_bottomright_same_c	7	449	23	mask.bmp	blankscreen.bmp	wmd2.bmp	blankscreen.bmp	square.bmp
39	real_c	real_bottomright_diff_c	8	426	23	mask.bmp	blankscreen.bmp	wmd3.bmp	blankscreen.bmp	square.bmp
39	real_c	real_bottomright_diff_c	9	332	18	mask.bmp	blankscreen.bmp	wfd5.bmp	blankscreen.bmp	circle.bmp
39	real_c	real_topleft_same_c	10	338	18	mask.bmp	blankscreen.bmp	wfd1.bmp	blankscreen.bmp	circle.bmp
39	real_c	real_topleft_same_c	11	392	18	mask.bmp	blankscreen.bmp	wfn1.bmp	blankscreen.bmp	circle.bmp
39	real_c	real_topright_same_c	12	348	18	mask.bmp	blankscreen.bmp	wfn2.bmp	blankscreen.bmp	circle.bmp
39	real_c	real_bottomleft_same_c	13	369	23	mask.bmp	blankscreen.bmp	wfd2.bmp	blankscreen.bmp	square.bmp
39	real_c	real_bottomright_diff_c	14	349	18	mask.bmp	blankscreen.bmp	wmn4.bmp	blankscreen.bmp	circle.bmp
39	real_c	real_topright_same_c	15	362	23	mask.bmp	blankscreen.bmp	wmd1.bmp	blankscreen.bmp	square.bmp
39	real_c	real_bottomleft_same_c	16	312	23	mask.bmp	blankscreen.bmp	wmn1.bmp	blankscreen.bmp	square.bmp
39	real_c	real_bottomright_same_c	17	431	23	mask.bmp	blankscreen.bmp	wmn2.bmp	blankscreen.bmp	square.bmp
39	real_c	real_topright_diff_c	18	512	23	mask.bmp	blankscreen.bmp	wfn5.bmp	blankscreen.bmp	square.bmp
39	real_c	real_topright_diff_c	19	368	18	mask.bmp	blankscreen.bmp	wmd4.bmp	blankscreen.bmp	circle.bmp
39	real_c	real_bottomleft_diff_c	20	540	18	mask.bmp	blankscreen.bmp	wmd5.bmp	blankscreen.bmp	circle.bmp
39	real_d	real_bottomright_diff_d	1	461	18	mask.bmp	blankscreen.bmp	wfn9.bmp	blankscreen.bmp	circle.bmp
39	real_d	real_topright_diff_d	2	399	18	mask.bmp	blankscreen.bmp	wfd9.bmp	blankscreen.bmp	circle.bmp
39	real_d	real_bottomleft_same_d	3	362	18	mask.bmp	blankscreen.bmp	wmn7.bmp	blankscreen.bmp	circle.bmp
39	real_d	real_topright_same_d	4	311	23	mask.bmp	blankscreen.bmp	wmd7.bmp	blankscreen.bmp	square.bmp
39	real_d	real_topleft_same_d	5	294	18	mask.bmp	blankscreen.bmp	wmd6.bmp	blankscreen.bmp	square.bmp
39	real_d	real_topleft_diff_d	6	366	23	mask.bmp	blankscreen.bmp	wfn10.bmp	blankscreen.bmp	square.bmp
39	real_d	real_topright_same_d	7	362	18	mask.bmp	blankscreen.bmp	wfd6.bmp	blankscreen.bmp	circle.bmp
39	real_d	real_topleft_diff_d	8	383	18	mask.bmp	blankscreen.bmp	wmn8.bmp	blankscreen.bmp	circle.bmp
39	real_d	real_topleft_same_d	9	307	18	mask.bmp	blankscreen.bmp	wmn6.bmp	blankscreen.bmp	circle.bmp
39	real_d	real_bottomright_same_d	10	314	18	mask.bmp	blankscreen.bmp	wfd7.bmp	blankscreen.bmp	circle.bmp
39	real_d	real_bottomright_diff_d	11	377	23	mask.bmp	blankscreen.bmp	wfd8.bmp	blankscreen.bmp	square.bmp
39	real_d	real_bottomright_diff_d	12	333	23	mask.bmp	blankscreen.bmp	wmn10.bmp	blankscreen.bmp	square.bmp
39	real_d	real_bottomleft_diff_d	13	379	18	mask.bmp	blankscreen.bmp	wmd8.bmp	blankscreen.bmp	circle.bmp
39	real_d	real_bottomright_same_d	14	399	23	mask.bmp	blankscreen.bmp	wfn7.bmp	blankscreen.bmp	square.bmp
39	real_d	real_bottomleft_diff_d	15	434	18	mask.bmp	blankscreen.bmp	wfd10.bmp	blankscreen.bmp	circle.bmp
39	real_d	real_topright_diff_d	16	404	18	mask.bmp	blankscreen.bmp	wfn8.bmp	blankscreen.bmp	circle.bmp
39	real_d	real_bottomleft_diff_d	17	495	18	mask.bmp	blankscreen.bmp	wmn9.bmp	blankscreen.bmp	circle.bmp
39	real_d	real_topright_diff_d	18	431	23	mask.bmp	blankscreen.bmp	wmd10.bmp	blankscreen.bmp	square.bmp
39	real_d	real_bottomleft_same_d	19	408	23	mask.bmp	blankscreen.bmp	wfn6.bmp	blankscreen.bmp	square.bmp
39	real_d	real_topleft_diff_d	20	379	18	mask.bmp	blankscreen.bmp	wmd9.bmp	blankscreen.bmp	circle.bmp
42	practice	practice_bottomleft_same	1	2266	23	mask.bmp	blankscreen.bmp	practice5.jpg	blankscreen.bmp	square.bmp
42	practice	practice_topright_diff	2	2043	23	mask.bmp	blankscreen.bmp	practice10.jpg	blankscreen.bmp	square.bmp
42	practice	practice_topleft_same	3	1405	23	mask.bmp	blankscreen.bmp	practice1.jpg	blankscreen.bmp	square.bmp
42	practice	practice_topright_same	4	1177	23	mask.bmp	blankscreen.bmp	practice3.jpg	blankscreen.bmp	square.bmp
42	practice	practice_bottomright_diff	5	693	23	mask.bmp	blankscreen.bmp	practice12.jpg	blankscreen.bmp	square.bmp
42	practice	practice_bottomleft_diff	6	389	23	mask.bmp	blankscreen.bmp	practice11.jpg	blankscreen.bmp	square.bmp
42	practice	practice_topleft_same	7	713	18	mask.bmp	blankscreen.bmp	practice2.jpg	blankscreen.bmp	circle.bmp
42	practice	practice_topright_same	8	975	23	mask.bmp	blankscreen.bmp	practice4.jpg	blankscreen.bmp	square.bmp
42	practice	practice_bottomright_same	9	1716	18	mask.bmp	blankscreen.bmp	practice7.jpg	blankscreen.bmp	circle.bmp
42	practice	practice_bottomleft_same	10	714	18	mask.bmp	blankscreen.bmp	practice6.jpg	blankscreen.bmp	circle.bmp
42	practice	practice_topleft_diff	11	3545	23	mask.bmp	blankscreen.bmp	practice9.jpg	blankscreen.bmp	square.bmp
42	practice	practice_bottomright_same	12	551	23	mask.bmp	blankscreen.bmp	practice8.jpg	blankscreen.bmp	square.bmp
42	real_a	real_bottomleft_diff_a	1	950	23	mask.bmp	blankscreen.bmp	wfn1.bmp	blankscreen.bmp	square.bmp
42	real_a	real_bottomright_diff_a	2	707	23	mask.bmp	blankscreen.bmp	wfn2.bmp	blankscreen.bmp	square.bmp
42	real_a	real_topright_diff_a	3	594	23	mask.bmp	blankscreen.bmp	wmd3.bmp	blankscreen.bmp	square.bmp
42	real_a	real_topright_diff_a	4	478	23	mask.bmp	blankscreen.bmp	wfd2.bmp	blankscreen.bmp	circle.bmp
42	real_a	real_topright_diff_a	5	686	23	mask.bmp	blankscreen.bmp	wmn1.bmp	blankscreen.bmp	square.bmp
42	real_a	real_bottomright_same_a	6	1166	23	mask.bmp	blankscreen.bmp	wmd5.bmp	blankscreen.bmp	square.bmp
42	real_a	real_bottomleft_diff_a	7	731	18	mask.bmp	blankscreen.bmp	wmn2.bmp	blankscreen.bmp	circle.bmp
42	real_a	real_topright_same_a	8	920	18	mask.bmp	blankscreen.bmp	wmn4.bmp	blankscreen.bmp	circle.bmp
42	real_a	real_topleft_same_a	9	1071	23	mask.bmp	blankscreen.bmp	wfd4.bmp	blankscreen.bmp	square.bmp
42	real_a	real_topright_same_a	10	919	18	mask.bmp	blankscreen.bmp	wfd5.bmp	blankscreen.bmp	circle.bmp
42	real_a	real_topleft_diff_a	11	2742	23	mask.bmp	blankscreen.bmp	wfn3.bmp	blankscreen.bmp	square.bmp
42	real_a	real_bottomleft_same_a	12	1580	23	mask.bmp	blankscreen.bmp	wmd4.bmp	blankscreen.bmp	square.bmp
42	real_a	real_topleft_diff_a	13	616	23	mask.bmp	blankscreen.bmp	wmd2.bmp	blankscreen.bmp	square.bmp
42	real_a	real_topleft_diff_a	14	1747	23	mask.bmp	blankscreen.bmp	wfd1.bmp	blankscreen.bmp	square.bmp
42	real_a	real_bottomleft_diff_a	15	920	23	mask.bmp	blankscreen.bmp	wfd3.bmp	blankscreen.bmp	square.bmp
42	real_a	real_topleft_same_a	16	1542	18	mask.bmp	blankscreen.bmp	wfn4.bmp	blankscreen.bmp	circle.bmp
42	real_a	real_bottomright_diff_a	17	1028	18	mask.bmp	blankscreen.bmp	wmn3.bmp	blankscreen.bmp	circle.bmp
42	real_a	real_bottomright_same_a	18	879	23	mask.bmp	blankscreen.bmp	wmn5.bmp	blankscreen.bmp	circle.bmp
42	real_a	real_bottomright_diff_a	19	1024	18	mask.bmp	blankscreen.bmp	wmd1.bmp	blankscreen.bmp	circle.bmp
42	real_a	real_bottomleft_same_a	20	506	18	mask.bmp	blankscreen.bmp	wfn5.bmp	blankscreen.bmp	circle.bmp
42	real_b	real_bottomleft_same_b	1	1066	23	mask.bmp	blankscreen.bmp	wfd9.bmp	blankscreen.bmp	square.bmp
42	real_b	real_topleft_same_b	2	346	18	mask.bmp	blankscreen.bmp	wmn9.bmp	blankscreen.bmp	circle.bmp
42	real_b	real_topleft_same_b	3	568	18	mask.bmp	blankscreen.bmp	wmd9.bmp	blankscreen.bmp	circle.bmp
42	real_b	real_topright_diff_b	4	572	23	mask.bmp	blankscreen.bmp	wfd8.bmp	blankscreen.bmp	square.bmp
42	real_b	real_bottomleft_diff_b	5	384	18	mask.bmp	blankscreen.bmp	wfn7.bmp	blankscreen.bmp	circle.bmp
42	real_b	real_bottomright_diff_b	6	1052	18	mask.bmp	blankscreen.bmp	wfn8.bmp	blankscreen.bmp	circle.bmp
42	real_b	real_bottomright_diff_b	7	2517	23	mask.bmp	blankscreen.bmp	wmd7.bmp	blankscreen.bmp	square.bmp
42	real_b	real_topleft_diff_b	8	628	18	mask.bmp	blankscreen.bmp	wmd8.bmp	blankscreen.bmp	circle.bmp
42	real_b	real_topright_same_b	9	479	23	mask.bmp	blankscreen.bmp	wfn9.bmp	blankscreen.bmp	circle.bmp
42	real_b	real_topright_diff_b	10	943	18	mask.bmp	blankscreen.bmp	wfn6.bmp	blankscreen.bmp	circle.bmp
42	real_b	real_topright_diff_b	11	645	23	mask.bmp	blankscreen.bmp	wmn7.bmp	blankscreen.bmp	square.bmp
42	real_b	real_bottomleft_diff_b	12	919	23	mask.bmp	blankscreen.bmp	wmn8.bmp	blankscreen.bmp	square.bmp
42	real_b	real_bottomright_same_b	13	429	18	mask.bmp	blankscreen.bmp	wfd10.bmp	blankscreen.bmp	circle.bmp
42	real_b	real_bottomright_same_b	14	719	23	mask.bmp	blankscreen.bmp	wfn10.bmp	blankscreen.bmp	circle.bmp
42	real_b	real_topleft_diff_b	15	798	23	mask.bmp	blankscreen.bmp	wfd7.bmp	blankscreen.bmp	square.bmp
42	real_b	real_topleft_diff_b	16	809	23	mask.bmp	blankscreen.bmp	wmn6.bmp	blankscreen.bmp	square.bmp
42	real_b	real_topright_same_b	17	492	18	mask.bmp	blankscreen.bmp	wmn10.bmp	blankscreen.bmp	circle.bmp
42	real_b	real_bottomright_diff_b	18	820	23	mask.bmp	blankscreen.bmp	wfd6.bmp	blankscreen.bmp	square.bmp
42	real_b	real_bottomleft_diff_b	19	623	23	mask.bmp	blankscreen.bmp	wmd6.bmp	blankscreen.bmp	square.bmp
42	real_b	real_bottomleft_same_b	20	793	18	mask.bmp	blankscreen.bmp	wmd10.bmp	blankscreen.bmp	circle.bmp
42	real_c	real_bottomright_diff_c	1	694	23	mask.bmp	blankscreen.bmp	wmn4.bmp	blankscreen.bmp	circle.bmp
42	real_c	real_topleft_same_c	2	478	18	mask.bmp	blankscreen.bmp	wfd1.bmp	blankscreen.bmp	circle.bmp
42	real_c	real_topright_diff_c	3	502	18	mask.bmp	blankscreen.bmp	wfn5.bmp	blankscreen.bmp	circle.bmp
42	real_c	real_bottomleft_diff_c	4	1214	23	mask.bmp	blankscreen.bmp	wfn3.bmp	blankscreen.bmp	square.bmp
42	real_c	real_bottomright_diff_c	5	600	18	mask.bmp	blankscreen.bmp	wmd3.bmp	blankscreen.bmp	circle.bmp
42	real_c	real_topleft_diff_c	6	1171	18	mask.bmp	blankscreen.bmp	wfn4.bmp	blankscreen.bmp	circle.bmp
42	real_c	real_topright_diff_c	7	600	18	mask.bmp	blankscreen.bmp	wmd4.bmp	blankscreen.bmp	circle.bmp
42	real_c	real_bottomright_diff_c	8	539	18	mask.bmp	blankscreen.bmp	wfd5.bmp	blankscreen.bmp	circle.bmp
42	real_c	real_bottomleft_diff_c	9	377	23	mask.bmp	blankscreen.bmp	wfd4.bmp	blankscreen.bmp	square.bmp
42	real_c	real_topright_diff_c	10	629	23	mask.bmp	blankscreen.bmp	wmn3.bmp	blankscreen.bmp	circle.bmp
42	real_c	real_bottomleft_same_c	11	663	23	mask.bmp	blankscreen.bmp	wmn1.bmp	blankscreen.bmp	square.bmp
42	real_c	real_topleft_same_c	12	871	18	mask.bmp	blankscreen.bmp	wfn1.bmp	blankscreen.bmp	circle.bmp
42	real_c	real_bottomleft_same_c	13	648	18	mask.bmp	blankscreen.bmp	wfd2.bmp	blankscreen.bmp	circle.bmp
42	real_c	real_topright_same_c	14	601	23	mask.bmp	blankscreen.bmp	wmd1.bmp	blankscreen.bmp	square.bmp
42	real_c	real_topleft_diff_c	15	532	23	mask.bmp	blankscreen.bmp	wfd3.bmp	blankscreen.bmp	square.bmp
42	real_c	real_topleft_diff_c	16	322	23	mask.bmp	blankscreen.bmp	wmn5.bmp	blankscreen.bmp	square.bmp
42	real_c	real_bottomright_same_c	17	672	18	mask.bmp	blankscreen.bmp	wmn2.bmp	blankscreen.bmp	circle.bmp
42	real_c	real_topright_same_c	18	345	18	mask.bmp	blankscreen.bmp	wfn2.bmp	blankscreen.bmp	circle.bmp
42	real_c	real_bottomleft_diff_c	19	719	23	mask.bmp	blankscreen.bmp	wmd5.bmp	blankscreen.bmp	square.bmp
42	real_c	real_bottomright_same_c	20	374	23	mask.bmp	blankscreen.bmp	wmd2.bmp	blankscreen.bmp	square.bmp
42	real_d	real_topleft_same_d	1	760	23	mask.bmp	blankscreen.bmp	wmn6.bmp	blankscreen.bmp	square.bmp
42	real_d	real_bottomright_diff_d	2	509	18	mask.bmp	blankscreen.bmp	wfn9.bmp	blankscreen.bmp	circle.bmp
42	real_d	real_bottomright_same_d	3	421	18	mask.bmp	blankscreen.bmp	wfn7.bmp	blankscreen.bmp	square.bmp
42	real_d	real_topleft_same_d	4	823	23	mask.bmp	blankscreen.bmp	wmd6.bmp	blankscreen.bmp	square.bmp
42	real_d	real_topright_same_d	5	1250	23	mask.bmp	blankscreen.bmp	wfd6.bmp	blankscreen.bmp	square.bmp
42	real_d	real_bottomleft_diff_d	6	427	23	mask.bmp	blankscreen.bmp	wfd10.bmp	blankscreen.bmp	square.bmp
42	real_d	real_topright_same_d	7	677	18	mask.bmp	blankscreen.bmp	wmd7.bmp	blankscreen.bmp	circle.bmp
42	real_d	real_bottomright_same_d	8	838	23	mask.bmp	blankscreen.bmp	wfd7.bmp	blankscreen.bmp	square.bmp
42	real_d	real_topleft_diff_d	9	495	18	mask.bmp	blankscreen.bmp	wfn10.bmp	blankscreen.bmp	circle.bmp
42	real_d	real_bottomright_diff_d	10	1567	18	mask.bmp	blankscreen.bmp	wmn10.bmp	blankscreen.bmp	circle.bmp
42	real_d	real_topright_diff_d	11	596	18	mask.bmp	blankscreen.bmp	wfd9.bmp	blankscreen.bmp	circle.bmp
42	real_d	real_bottomleft_same_d	12	431	23	mask.bmp	blankscreen.bmp	wfn6.bmp	blankscreen.bmp	square.bmp
42	real_d	real_topright_diff_d	13	353	23	mask.bmp	blankscreen.bmp	wmd10.bmp	blankscreen.bmp	square.bmp
42	real_d	real_topright_diff_d	14	486	23	mask.bmp	blankscreen.bmp	wfn8.bmp	blankscreen.bmp	square.bmp
42	real_d	real_bottomleft_diff_d	15	630	23	mask.bmp	blankscreen.bmp	wmn9.bmp	blankscreen.bmp	square.bmp
42	real_d	real_bottomleft_same_d	16	367	18	mask.bmp	blankscreen.bmp	wmn7.bmp	blankscreen.bmp	circle.bmp
42	real_d	real_topleft_diff_d	17	876	23	mask.bmp	blankscreen.bmp	wmd9.bmp	blankscreen.bmp	square.bmp
42	real_d	real_bottomright_diff_d	18	612	18	mask.bmp	blankscreen.bmp	wfd8.bmp	blankscreen.bmp	circle.bmp
42	real_d	real_topleft_diff_d	19	560	18	mask.bmp	blankscreen.bmp	wmn8.bmp	blankscreen.bmp	square.bmp
42	real_d	real_bottomleft_diff_d	20	357	23	mask.bmp	blankscreen.bmp	wmd8.bmp	blankscreen.bmp	square.bmp
46	practice	practice_bottomleft_same	1	248	18	mask.bmp	blankscreen.bmp	practice5.jpg	blankscreen.bmp	square.bmp
46	practice	practice_topright_same	2	1161	23	mask.bmp	blankscreen.bmp	practice4.jpg	blankscreen.bmp	square.bmp
46	practice	practice_bottomright_same	3	566	18	mask.bmp	blankscreen.bmp	practice8.jpg	blankscreen.bmp	circle.bmp
46	practice	practice_bottomright_same	4	666	23	mask.bmp	blankscreen.bmp	practice7.jpg	blankscreen.bmp	circle.bmp
46	practice	practice_topright_same	5	627	23	mask.bmp	blankscreen.bmp	practice3.jpg	blankscreen.bmp	square.bmp
46	practice	practice_topleft_same	6	373	18	mask.bmp	blankscreen.bmp	practice2.jpg	blankscreen.bmp	circle.bmp
46	practice	practice_topright_diff	7	770	18	mask.bmp	blankscreen.bmp	practice10.jpg	blankscreen.bmp	circle.bmp
46	practice	practice_topleft_same	8	775	23	mask.bmp	blankscreen.bmp	practice1.jpg	blankscreen.bmp	square.bmp
46	practice	practice_bottomleft_diff	9	731	18	mask.bmp	blankscreen.bmp	practice11.jpg	blankscreen.bmp	circle.bmp
46	practice	practice_bottomright_diff	10	569	23	mask.bmp	blankscreen.bmp	practice12.jpg	blankscreen.bmp	square.bmp
46	practice	practice_bottomleft_same	11	381	18	mask.bmp	blankscreen.bmp	practice6.jpg	blankscreen.bmp	circle.bmp
46	practice	practice_topleft_diff	12	729	18	mask.bmp	blankscreen.bmp	practice9.jpg	blankscreen.bmp	circle.bmp
46	real_a	real_topleft_same_a	1	710	23	mask.bmp	blankscreen.bmp	wfd4.bmp	blankscreen.bmp	square.bmp
46	real_a	real_bottomleft_same_a	2	645	23	mask.bmp	blankscreen.bmp	wfn5.bmp	blankscreen.bmp	square.bmp
46	real_a	real_topright_diff_a	3	558	18	mask.bmp	blankscreen.bmp	wmn1.bmp	blankscreen.bmp	circle.bmp
46	real_a	real_bottomleft_diff_a	4	867	23	mask.bmp	blankscreen.bmp	wmn2.bmp	blankscreen.bmp	square.bmp
46	real_a	real_topleft_diff_a	5	524	18	mask.bmp	blankscreen.bmp	wmd2.bmp	blankscreen.bmp	circle.bmp
46	real_a	real_bottomleft_diff_a	6	642	18	mask.bmp	blankscreen.bmp	wfn1.bmp	blankscreen.bmp	circle.bmp
46	real_a	real_bottomleft_same_a	7	564	18	mask.bmp	blankscreen.bmp	wmd4.bmp	blankscreen.bmp	circle.bmp
46	real_a	real_bottomright_same_a	8	577	23	mask.bmp	blankscreen.bmp	wmd5.bmp	blankscreen.bmp	square.bmp
46	real_a	real_topright_same_a	9	589	23	mask.bmp	blankscreen.bmp	wmn4.bmp	blankscreen.bmp	square.bmp
46	real_a	real_topright_diff_a	10	689	18	mask.bmp	blankscreen.bmp	wmd3.bmp	blankscreen.bmp	circle.bmp
46	real_a	real_bottomright_same_a	11	697	18	mask.bmp	blankscreen.bmp	wmn5.bmp	blankscreen.bmp	circle.bmp
46	real_a	real_topleft_same_a	12	440	23	mask.bmp	blankscreen.bmp	wfn4.bmp	blankscreen.bmp	square.bmp
46	real_a	real_topright_same_a	13	514	23	mask.bmp	blankscreen.bmp	wfd5.bmp	blankscreen.bmp	square.bmp
46	real_a	real_topleft_diff_a	14	480	18	mask.bmp	blankscreen.bmp	wfd1.bmp	blankscreen.bmp	circle.bmp
46	real_a	real_topright_diff_a	15	544	23	mask.bmp	blankscreen.bmp	wfd2.bmp	blankscreen.bmp	square.bmp
46	real_a	real_bottomright_diff_a	16	614	23	mask.bmp	blankscreen.bmp	wmn3.bmp	blankscreen.bmp	square.bmp
46	real_a	real_topleft_diff_a	17	608	23	mask.bmp	blankscreen.bmp	wfn3.bmp	blankscreen.bmp	square.bmp
46	real_a	real_bottomright_diff_a	18	548	23	mask.bmp	blankscreen.bmp	wfn2.bmp	blankscreen.bmp	square.bmp
46	real_a	real_bottomright_diff_a	19	545	18	mask.bmp	blankscreen.bmp	wmd1.bmp	blankscreen.bmp	circle.bmp
46	real_a	real_bottomleft_diff_a	20	735	23	mask.bmp	blankscreen.bmp	wfd3.bmp	blankscreen.bmp	square.bmp
46	real_b	real_topleft_diff_b	1	691	23	mask.bmp	blankscreen.bmp	wfd7.bmp	blankscreen.bmp	square.bmp
46	real_b	real_topright_same_b	2	683	23	mask.bmp	blankscreen.bmp	wmn10.bmp	blankscreen.bmp	square.bmp
46	real_b	real_bottomright_diff_b	3	579	23	mask.bmp	blankscreen.bmp	wfn8.bmp	blankscreen.bmp	square.bmp
46	real_b	real_bottomleft_diff_b	4	607	23	mask.bmp	blankscreen.bmp	wfn7.bmp	blankscreen.bmp	square.bmp
46	real_b	real_bottomleft_diff_b	5	554	23	mask.bmp	blankscreen.bmp	wmn8.bmp	blankscreen.bmp	square.bmp
46	real_b	real_topleft_same_b	6	543	23	mask.bmp	blankscreen.bmp	wmd9.bmp	blankscreen.bmp	square.bmp
46	real_b	real_bottomright_diff_b	7	541	18	mask.bmp	blankscreen.bmp	wmd7.bmp	blankscreen.bmp	circle.bmp
46	real_b	real_topright_diff_b	8	507	23	mask.bmp	blankscreen.bmp	wmn7.bmp	blankscreen.bmp	square.bmp
46	real_b	real_topright_diff_b	9	618	18	mask.bmp	blankscreen.bmp	wfn6.bmp	blankscreen.bmp	circle.bmp
46	real_b	real_topleft_diff_b	10	612	18	mask.bmp	blankscreen.bmp	wmn6.bmp	blankscreen.bmp	circle.bmp
46	real_b	real_topleft_diff_b	11	551	23	mask.bmp	blankscreen.bmp	wmd8.bmp	blankscreen.bmp	square.bmp
46	real_b	real_bottomright_same_b	12	572	23	mask.bmp	blankscreen.bmp	wfd10.bmp	blankscreen.bmp	square.bmp
46	real_b	real_bottomleft_diff_b	13	505	23	mask.bmp	blankscreen.bmp	wmd6.bmp	blankscreen.bmp	square.bmp
46	real_b	real_bottomleft_same_b	14	464	23	mask.bmp	blankscreen.bmp	wmd10.bmp	blankscreen.bmp	square.bmp
46	real_b	real_topright_same_b	15	465	23	mask.bmp	blankscreen.bmp	wfn9.bmp	blankscreen.bmp	square.bmp
46	real_b	real_bottomright_same_b	16	473	18	mask.bmp	blankscreen.bmp	wfn10.bmp	blankscreen.bmp	circle.bmp
46	real_b	real_topleft_same_b	17	402	18	mask.bmp	blankscreen.bmp	wmn9.bmp	blankscreen.bmp	circle.bmp
46	real_b	real_bottomleft_same_b	18	317	23	mask.bmp	blankscreen.bmp	wfd9.bmp	blankscreen.bmp	circle.bmp
46	real_b	real_topright_diff_b	19	595	23	mask.bmp	blankscreen.bmp	wfd8.bmp	blankscreen.bmp	square.bmp
46	real_b	real_bottomright_diff_b	20	575	18	mask.bmp	blankscreen.bmp	wfd6.bmp	blankscreen.bmp	circle.bmp
46	real_c	real_topright_diff_c	1	896	23	mask.bmp	blankscreen.bmp	wfn5.bmp	blankscreen.bmp	square.bmp
46	real_c	real_bottomleft_same_c	2	367	18	mask.bmp	blankscreen.bmp	wfd2.bmp	blankscreen.bmp	circle.bmp
46	real_c	real_bottomleft_diff_c	3	604	18	mask.bmp	blankscreen.bmp	wfn3.bmp	blankscreen.bmp	circle.bmp
46	real_c	real_bottomright_diff_c	4	591	23	mask.bmp	blankscreen.bmp	wmd3.bmp	blankscreen.bmp	square.bmp
46	real_c	real_bottomleft_diff_c	5	603	18	mask.bmp	blankscreen.bmp	wfd4.bmp	blankscreen.bmp	circle.bmp
46	real_c	real_topright_diff_c	6	582	23	mask.bmp	blankscreen.bmp	wmn3.bmp	blankscreen.bmp	square.bmp
46	real_c	real_topleft_same_c	7	890	23	mask.bmp	blankscreen.bmp	wfn1.bmp	blankscreen.bmp	square.bmp
46	real_c	real_bottomright_diff_c	8	714	23	mask.bmp	blankscreen.bmp	wmn4.bmp	blankscreen.bmp	square.bmp
46	real_c	real_bottomright_diff_c	9	672	18	mask.bmp	blankscreen.bmp	wfd5.bmp	blankscreen.bmp	circle.bmp
46	real_c	real_bottomleft_diff_c	10	769	23	mask.bmp	blankscreen.bmp	wmd5.bmp	blankscreen.bmp	square.bmp
46	real_c	real_topleft_diff_c	11	669	23	mask.bmp	blankscreen.bmp	wfd3.bmp	blankscreen.bmp	square.bmp
46	real_c	real_topleft_diff_c	12	598	18	mask.bmp	blankscreen.bmp	wmn5.bmp	blankscreen.bmp	circle.bmp
46	real_c	real_topright_same_c	13	593	18	mask.bmp	blankscreen.bmp	wmd1.bmp	blankscreen.bmp	circle.bmp
46	real_c	real_bottomright_same_c	14	621	18	mask.bmp	blankscreen.bmp	wmn2.bmp	blankscreen.bmp	circle.bmp
46	real_c	real_bottomleft_same_c	15	463	23	mask.bmp	blankscreen.bmp	wmn1.bmp	blankscreen.bmp	square.bmp
46	real_c	real_topright_same_c	16	664	23	mask.bmp	blankscreen.bmp	wfn2.bmp	blankscreen.bmp	square.bmp
46	real_c	real_topleft_diff_c	17	584	18	mask.bmp	blankscreen.bmp	wfn4.bmp	blankscreen.bmp	circle.bmp
46	real_c	real_topright_diff_c	18	556	23	mask.bmp	blankscreen.bmp	wmd4.bmp	blankscreen.bmp	square.bmp
46	real_c	real_topleft_same_c	19	657	23	mask.bmp	blankscreen.bmp	wfd1.bmp	blankscreen.bmp	square.bmp
46	real_c	real_bottomright_same_c	20	530	23	mask.bmp	blankscreen.bmp	wmd2.bmp	blankscreen.bmp	square.bmp
46	real_d	real_topright_diff_d	1	723	23	mask.bmp	blankscreen.bmp	wfd9.bmp	blankscreen.bmp	square.bmp
46	real_d	real_bottomleft_same_d	2	482	23	mask.bmp	blankscreen.bmp	wmn7.bmp	blankscreen.bmp	square.bmp
46	real_d	real_bottomright_diff_d	3	569	23	mask.bmp	blankscreen.bmp	wfn9.bmp	blankscreen.bmp	square.bmp
46	real_d	real_topleft_diff_d	4	574	23	mask.bmp	blankscreen.bmp	wmn8.bmp	blankscreen.bmp	square.bmp
46	real_d	real_bottomright_diff_d	5	634	18	mask.bmp	blankscreen.bmp	wmn10.bmp	blankscreen.bmp	circle.bmp
46	real_d	real_bottomleft_same_d	6	628	18	mask.bmp	blankscreen.bmp	wfn6.bmp	blankscreen.bmp	circle.bmp
46	real_d	real_bottomleft_diff_d	7	591	18	mask.bmp	blankscreen.bmp	wmn9.bmp	blankscreen.bmp	circle.bmp
46	real_d	real_topright_same_d	8	523	18	mask.bmp	blankscreen.bmp	wmd7.bmp	blankscreen.bmp	circle.bmp
46	real_d	real_bottomright_same_d	9	569	23	mask.bmp	blankscreen.bmp	wfn7.bmp	blankscreen.bmp	square.bmp
46	real_d	real_bottomright_same_d	10	629	18	mask.bmp	blankscreen.bmp	wfd7.bmp	blankscreen.bmp	circle.bmp
46	real_d	real_bottomright_diff_d	11	591	18	mask.bmp	blankscreen.bmp	wfd8.bmp	blankscreen.bmp	circle.bmp
46	real_d	real_topleft_diff_d	12	643	18	mask.bmp	blankscreen.bmp	wfn10.bmp	blankscreen.bmp	circle.bmp
46	real_d	real_topright_diff_d	13	557	18	mask.bmp	blankscreen.bmp	wmd10.bmp	blankscreen.bmp	circle.bmp
46	real_d	real_bottomleft_diff_d	14	650	23	mask.bmp	blankscreen.bmp	wmd8.bmp	blankscreen.bmp	square.bmp
46	real_d	real_bottomleft_diff_d	15	651	23	mask.bmp	blankscreen.bmp	wfd10.bmp	blankscreen.bmp	square.bmp
46	real_d	real_topright_diff_d	16	612	18	mask.bmp	blankscreen.bmp	wfn8.bmp	blankscreen.bmp	circle.bmp
46	real_d	real_topleft_same_d	17	519	18	mask.bmp	blankscreen.bmp	wmn6.bmp	blankscreen.bmp	circle.bmp
46	real_d	real_topleft_diff_d	18	645	23	mask.bmp	blankscreen.bmp	wmd9.bmp	blankscreen.bmp	square.bmp
46	real_d	real_topright_same_d	19	575	18	mask.bmp	blankscreen.bmp	wfd6.bmp	blankscreen.bmp	circle.bmp
46	real_d	real_topleft_same_d	20	635	23	mask.bmp	blankscreen.bmp	wmd6.bmp	blankscreen.bmp	square.bmp
49	practice	practice_topright_diff	1	1002	23	mask.bmp	blankscreen.bmp	practice10.jpg	blankscreen.bmp	square.bmp
49	practice	practice_bottomleft_same	2	493	18	mask.bmp	blankscreen.bmp	practice5.jpg	blankscreen.bmp	circle.bmp
49	practice	practice_topright_same	3	869	23	mask.bmp	blankscreen.bmp	practice4.jpg	blankscreen.bmp	square.bmp
49	practice	practice_bottomright_same	4	821	18	mask.bmp	blankscreen.bmp	practice8.jpg	blankscreen.bmp	circle.bmp
49	practice	practice_topleft_same	5	632	18	mask.bmp	blankscreen.bmp	practice2.jpg	blankscreen.bmp	circle.bmp
49	practice	practice_topleft_same	6	554	23	mask.bmp	blankscreen.bmp	practice1.jpg	blankscreen.bmp	square.bmp
49	practice	practice_topleft_diff	7	567	23	mask.bmp	blankscreen.bmp	practice9.jpg	blankscreen.bmp	square.bmp
49	practice	practice_topright_same	8	443	23	mask.bmp	blankscreen.bmp	practice3.jpg	blankscreen.bmp	square.bmp
49	practice	practice_bottomleft_same	9	341	18	mask.bmp	blankscreen.bmp	practice6.jpg	blankscreen.bmp	circle.bmp
49	practice	practice_bottomleft_diff	10	467	23	mask.bmp	blankscreen.bmp	practice11.jpg	blankscreen.bmp	square.bmp
49	practice	practice_bottomright_same	11	379	23	mask.bmp	blankscreen.bmp	practice7.jpg	blankscreen.bmp	circle.bmp
49	practice	practice_bottomright_diff	12	528	23	mask.bmp	blankscreen.bmp	practice12.jpg	blankscreen.bmp	square.bmp
49	real_a	real_topright_same_a	1	515	23	mask.bmp	blankscreen.bmp	wfd5.bmp	blankscreen.bmp	square.bmp
49	real_a	real_bottomleft_same_a	2	538	23	mask.bmp	blankscreen.bmp	wfn5.bmp	blankscreen.bmp	square.bmp
49	real_a	real_topleft_diff_a	3	536	23	mask.bmp	blankscreen.bmp	wmd2.bmp	blankscreen.bmp	square.bmp
49	real_a	real_topleft_same_a	4	470	23	mask.bmp	blankscreen.bmp	wfd4.bmp	blankscreen.bmp	square.bmp
49	real_a	real_topleft_diff_a	5	518	23	mask.bmp	blankscreen.bmp	wfn3.bmp	blankscreen.bmp	square.bmp
49	real_a	real_bottomleft_diff_a	6	445	18	mask.bmp	blankscreen.bmp	wfn1.bmp	blankscreen.bmp	circle.bmp
49	real_a	real_bottomright_same_a	7	510	18	mask.bmp	blankscreen.bmp	wmn5.bmp	blankscreen.bmp	circle.bmp
49	real_a	real_bottomright_diff_a	8	509	18	mask.bmp	blankscreen.bmp	wmn3.bmp	blankscreen.bmp	circle.bmp
49	real_a	real_topleft_diff_a	9	613	23	mask.bmp	blankscreen.bmp	wfd1.bmp	blankscreen.bmp	square.bmp
49	real_a	real_topright_diff_a	10	567	23	mask.bmp	blankscreen.bmp	wmd3.bmp	blankscreen.bmp	square.bmp
49	real_a	real_topright_diff_a	11	508	23	mask.bmp	blankscreen.bmp	wfd2.bmp	blankscreen.bmp	square.bmp
49	real_a	real_bottomright_diff_a	12	427	23	mask.bmp	blankscreen.bmp	wfn2.bmp	blankscreen.bmp	square.bmp
49	real_a	real_bottomright_diff_a	13	461	18	mask.bmp	blankscreen.bmp	wmd1.bmp	blankscreen.bmp	circle.bmp
49	real_a	real_bottomleft_diff_a	14	470	23	mask.bmp	blankscreen.bmp	wfd3.bmp	blankscreen.bmp	square.bmp
49	real_a	real_bottomleft_diff_a	15	407	18	mask.bmp	blankscreen.bmp	wmn2.bmp	blankscreen.bmp	circle.bmp
49	real_a	real_topright_same_a	16	594	23	mask.bmp	blankscreen.bmp	wmn4.bmp	blankscreen.bmp	square.bmp
49	real_a	real_bottomleft_same_a	17	486	18	mask.bmp	blankscreen.bmp	wmd4.bmp	blankscreen.bmp	circle.bmp
49	real_a	real_topright_diff_a	18	621	23	mask.bmp	blankscreen.bmp	wmn1.bmp	blankscreen.bmp	square.bmp
