subject	blockcode	trialcode	trialnum	latency	response	stimulusitem1	stimulusitem2	stimulusitem3	stimulusitem4	stimulusitem5
9999	practice	practice_bottomright_same	1	1295	18	mask.bmp	blankscreen.bmp	practice8.jpg	blankscreen.bmp	circle.bmp
9999	practice	practice_topleft_diff	2	1158	23	mask.bmp	blankscreen.bmp	practice9.jpg	blankscreen.bmp	square.bmp
9999	practice	practice_topright_same	3	883	18	mask.bmp	blankscreen.bmp	practice3.jpg	blankscreen.bmp	circle.bmp
9999	practice	practice_bottomright_diff	4	986	23	mask.bmp	blankscreen.bmp	practice12.jpg	blankscreen.bmp	square.bmp
9999	practice	practice_bottomleft_same	5	717	18	mask.bmp	blankscreen.bmp	practice5.jpg	blankscreen.bmp	circle.bmp
9999	practice	practice_topleft_same	6	683	18	mask.bmp	blankscreen.bmp	practice1.jpg	blankscreen.bmp	circle.bmp
9999	practice	practice_bottomleft_same	7	794	23	mask.bmp	blankscreen.bmp	practice6.jpg	blankscreen.bmp	square.bmp
9999	practice	practice_bottomright_same	8	1429	23	mask.bmp	blankscreen.bmp	practice7.jpg	blankscreen.bmp	square.bmp
9999	practice	practice_bottomleft_diff	9	1863	23	mask.bmp	blankscreen.bmp	practice11.jpg	blankscreen.bmp	square.bmp
9999	practice	practice_topright_diff	10	1016	18	mask.bmp	blankscreen.bmp	practice10.jpg	blankscreen.bmp	circle.bmp
9999	practice	practice_topleft_same	11	1066	18	mask.bmp	blankscreen.bmp	practice2.jpg	blankscreen.bmp	circle.bmp
9999	practice	practice_topright_same	12	905	18	mask.bmp	blankscreen.bmp	practice4.jpg	blankscreen.bmp	circle.bmp
9999	real_a	real_topright_same_a	1	1037	23	mask.bmp	blankscreen.bmp	wfd5.bmp	blankscreen.bmp	square.bmp
9999	real_a	real_bottomright_diff_a	2	1198	23	mask.bmp	blankscreen.bmp	wfn2.bmp	blankscreen.bmp	square.bmp
9999	real_a	real_topleft_diff_a	3	761	23	mask.bmp	blankscreen.bmp	wfn3.bmp	blankscreen.bmp	square.bmp
9999	real_a	real_topright_diff_a	4	869	18	mask.bmp	blankscreen.bmp	wmd3.bmp	blankscreen.bmp	circle.bmp
9999	real_a	real_bottomleft_same_a	5	797	23	mask.bmp	blankscreen.bmp	wmd4.bmp	blankscreen.bmp	square.bmp
9999	real_a	real_topright_same_a	6	568	18	mask.bmp	blankscreen.bmp	wmn4.bmp	blankscreen.bmp	circle.bmp
9999	real_a	real_topleft_same_a	7	1116	18	mask.bmp	blankscreen.bmp	wfn4.bmp	blankscreen.bmp	circle.bmp
9999	real_a	real_topleft_same_a	8	698	18	mask.bmp	blankscreen.bmp	wfd4.bmp	blankscreen.bmp	square.bmp
9999	real_a	real_bottomright_same_a	9	1304	18	mask.bmp	blankscreen.bmp	wmn5.bmp	blankscreen.bmp	circle.bmp
9999	real_a	real_bottomleft_diff_a	10	1887	23	mask.bmp	blankscreen.bmp	wfn1.bmp	blankscreen.bmp	square.bmp
9999	real_a	real_bottomright_same_a	11	974	18	mask.bmp	blankscreen.bmp	wmd5.bmp	blankscreen.bmp	circle.bmp
9999	real_a	real_topleft_diff_a	12	1634	18	mask.bmp	blankscreen.bmp	wfd1.bmp	blankscreen.bmp	circle.bmp
9999	real_a	real_topright_diff_a	13	811	23	mask.bmp	blankscreen.bmp	wmn1.bmp	blankscreen.bmp	square.bmp
9999	real_a	real_topleft_diff_a	14	1157	18	mask.bmp	blankscreen.bmp	wmd2.bmp	blankscreen.bmp	circle.bmp
9999	real_a	real_bottomleft_diff_a	15	1330	23	mask.bmp	blankscreen.bmp	wfd3.bmp	blankscreen.bmp	square.bmp
9999	real_a	real_bottomright_diff_a	16	776	18	mask.bmp	blankscreen.bmp	wmn3.bmp	blankscreen.bmp	circle.bmp
9999	real_a	real_bottomleft_diff_a	17	1300	23	mask.bmp	blankscreen.bmp	wmn2.bmp	blankscreen.bmp	square.bmp
9999	real_a	real_topright_diff_a	18	810	23	mask.bmp	blankscreen.bmp	wfd2.bmp	blankscreen.bmp	square.bmp
9999	real_a	real_bottomleft_same_a	19	773	18	mask.bmp	blankscreen.bmp	wfn5.bmp	blankscreen.bmp	circle.bmp
9999	real_a	real_bottomright_diff_a	20	2097	23	mask.bmp	blankscreen.bmp	wmd1.bmp	blankscreen.bmp	square.bmp
9999	real_b	real_topright_diff_b	1	881	23	mask.bmp	blankscreen.bmp	wmn7.bmp	blankscreen.bmp	square.bmp
9999	real_b	real_topleft_diff_b	2	1016	23	mask.bmp	blankscreen.bmp	wmd8.bmp	blankscreen.bmp	square.bmp
9999	real_b	real_bottomright_diff_b	3	730	23	mask.bmp	blankscreen.bmp	wfn8.bmp	blankscreen.bmp	square.bmp
9999	real_b	real_topright_diff_b	4	2920	18	mask.bmp	blankscreen.bmp	wfd8.bmp	blankscreen.bmp	circle.bmp
9999	real_b	real_bottomright_diff_b	5	1022	23	mask.bmp	blankscreen.bmp	wmd7.bmp	blankscreen.bmp	square.bmp
9999	real_b	real_bottomleft_same_b	6	1071	18	mask.bmp	blankscreen.bmp	wfd9.bmp	blankscreen.bmp	circle.bmp
9999	real_b	real_topright_diff_b	7	1311	23	mask.bmp	blankscreen.bmp	wfn6.bmp	blankscreen.bmp	square.bmp
9999	real_b	real_bottomright_diff_b	8	822	23	mask.bmp	blankscreen.bmp	wfd6.bmp	blankscreen.bmp	square.bmp
9999	real_b	real_topleft_diff_b	9	1216	23	mask.bmp	blankscreen.bmp	wmn6.bmp	blankscreen.bmp	square.bmp
9999	real_b	real_bottomleft_diff_b	10	922	18	mask.bmp	blankscreen.bmp	wmn8.bmp	blankscreen.bmp	circle.bmp
9999	real_b	real_topright_same_b	11	863	23	mask.bmp	blankscreen.bmp	wfn9.bmp	blankscreen.bmp	square.bmp
9999	real_b	real_bottomleft_diff_b	12	1192	18	mask.bmp	blankscreen.bmp	wmd6.bmp	blankscreen.bmp	circle.bmp
9999	real_b	real_topleft_same_b	13	835	23	mask.bmp	blankscreen.bmp	wmn9.bmp	blankscreen.bmp	square.bmp
9999	real_b	real_topright_same_b	14	892	18	mask.bmp	blankscreen.bmp	wmn10.bmp	blankscreen.bmp	circle.bmp
9999	real_b	real_topleft_same_b	15	755	23	mask.bmp	blankscreen.bmp	wmd9.bmp	blankscreen.bmp	square.bmp
9999	real_b	real_bottomleft_diff_b	16	928	18	mask.bmp	blankscreen.bmp	wfn7.bmp	blankscreen.bmp	circle.bmp
9999	real_b	real_bottomright_same_b	17	806	18	mask.bmp	blankscreen.bmp	wfd10.bmp	blankscreen.bmp	circle.bmp
9999	real_b	real_bottomright_same_b	18	1008	18	mask.bmp	blankscreen.bmp	wfn10.bmp	blankscreen.bmp	circle.bmp
9999	real_b	real_bottomleft_same_b	19	947	18	mask.bmp	blankscreen.bmp	wmd10.bmp	blankscreen.bmp	circle.bmp
9999	real_b	real_topleft_diff_b	20	1912	18	mask.bmp	blankscreen.bmp	wfd7.bmp	blankscreen.bmp	circle.bmp
9999	real_c	real_topright_diff_c	1	1600	23	mask.bmp	blankscreen.bmp	wmn3.bmp	blankscreen.bmp	square.bmp
9999	real_c	real_bottomright_diff_c	2	890	23	mask.bmp	blankscreen.bmp	wmn4.bmp	blankscreen.bmp	square.bmp
9999	real_c	real_bottomright_same_c	3	754	18	mask.bmp	blankscreen.bmp	wmn2.bmp	blankscreen.bmp	circle.bmp
9999	real_c	real_topleft_diff_c	4	1966	18	mask.bmp	blankscreen.bmp	wfd3.bmp	blankscreen.bmp	circle.bmp
9999	real_c	real_bottomleft_diff_c	5	986	23	mask.bmp	blankscreen.bmp	wmd5.bmp	blankscreen.bmp	square.bmp
9999	real_c	real_topleft_diff_c	6	926	23	mask.bmp	blankscreen.bmp	wmn5.bmp	blankscreen.bmp	square.bmp
9999	real_c	real_bottomright_diff_c	7	947	23	mask.bmp	blankscreen.bmp	wmd3.bmp	blankscreen.bmp	square.bmp
9999	real_c	real_topright_diff_c	8	1208	23	mask.bmp	blankscreen.bmp	wfn5.bmp	blankscreen.bmp	square.bmp
9999	real_c	real_topright_same_c	9	931	23	mask.bmp	blankscreen.bmp	wmd1.bmp	blankscreen.bmp	square.bmp
9999	real_c	real_topleft_diff_c	10	776	23	mask.bmp	blankscreen.bmp	wfn4.bmp	blankscreen.bmp	square.bmp
9999	real_c	real_bottomleft_same_c	11	820	23	mask.bmp	blankscreen.bmp	wmn1.bmp	blankscreen.bmp	square.bmp
9999	real_c	real_topleft_same_c	12	734	23	mask.bmp	blankscreen.bmp	wfd1.bmp	blankscreen.bmp	square.bmp
9999	real_c	real_bottomleft_diff_c	13	779	23	mask.bmp	blankscreen.bmp	wfn3.bmp	blankscreen.bmp	square.bmp
9999	real_c	real_topleft_same_c	14	583	23	mask.bmp	blankscreen.bmp	wfn1.bmp	blankscreen.bmp	square.bmp
9999	real_c	real_bottomright_diff_c	15	858	18	mask.bmp	blankscreen.bmp	wfd5.bmp	blankscreen.bmp	circle.bmp
9999	real_c	real_bottomleft_same_c	16	691	23	mask.bmp	blankscreen.bmp	wfd2.bmp	blankscreen.bmp	square.bmp
9999	real_c	real_topright_diff_c	17	1266	23	mask.bmp	blankscreen.bmp	wmd4.bmp	blankscreen.bmp	square.bmp
9999	real_c	real_bottomright_same_c	18	1258	18	mask.bmp	blankscreen.bmp	wmd2.bmp	blankscreen.bmp	square.bmp
9999	real_c	real_topright_same_c	19	1154	23	mask.bmp	blankscreen.bmp	wfn2.bmp	blankscreen.bmp	square.bmp
9999	real_c	real_bottomleft_diff_c	20	1631	23	mask.bmp	blankscreen.bmp	wfd4.bmp	blankscreen.bmp	circle.bmp
9999	real_d	real_bottomleft_same_d	1	1390	18	mask.bmp	blankscreen.bmp	wmn7.bmp	blankscreen.bmp	circle.bmp
9999	real_d	real_topright_diff_d	2	1425	18	mask.bmp	blankscreen.bmp	wmd10.bmp	blankscreen.bmp	circle.bmp
9999	real_d	real_topleft_same_d	3	1235	23	mask.bmp	blankscreen.bmp	wmn6.bmp	blankscreen.bmp	square.bmp
9999	real_d	real_topleft_diff_d	4	2124	23	mask.bmp	blankscreen.bmp	wmd9.bmp	blankscreen.bmp	square.bmp
9999	real_d	real_bottomright_same_d	5	562	18	mask.bmp	blankscreen.bmp	wfd7.bmp	blankscreen.bmp	square.bmp
9999	real_d	real_topright_diff_d	6	918	18	mask.bmp	blankscreen.bmp	wfn8.bmp	blankscreen.bmp	circle.bmp
9999	real_d	real_bottomright_diff_d	7	1036	18	mask.bmp	blankscreen.bmp	wmn10.bmp	blankscreen.bmp	circle.bmp
9999	real_d	real_bottomleft_diff_d	8	1373	23	mask.bmp	blankscreen.bmp	wfd10.bmp	blankscreen.bmp	square.bmp
9999	real_d	real_bottomright_diff_d	9	1617	18	mask.bmp	blankscreen.bmp	wfn9.bmp	blankscreen.bmp	circle.bmp
9999	real_d	real_bottomleft_diff_d	10	747	18	mask.bmp	blankscreen.bmp	wmd8.bmp	blankscreen.bmp	circle.bmp
9999	real_d	real_bottomleft_diff_d	11	1016	23	mask.bmp	blankscreen.bmp	wmn9.bmp	blankscreen.bmp	square.bmp
9999	real_d	real_topright_same_d	12	746	18	mask.bmp	blankscreen.bmp	wfd6.bmp	blankscreen.bmp	circle.bmp
9999	real_d	real_topright_same_d	13	1863	18	mask.bmp	blankscreen.bmp	wmd7.bmp	blankscreen.bmp	circle.bmp
9999	real_d	real_topleft_diff_d	14	2824	23	mask.bmp	blankscreen.bmp	wmn8.bmp	blankscreen.bmp	square.bmp
9999	real_d	real_topleft_diff_d	15	2658	18	mask.bmp	blankscreen.bmp	wfn10.bmp	blankscreen.bmp	circle.bmp
9999	real_d	real_bottomright_same_d	16	818	18	mask.bmp	blankscreen.bmp	wfn7.bmp	blankscreen.bmp	circle.bmp
9999	real_d	real_bottomright_diff_d	17	1148	18	mask.bmp	blankscreen.bmp	wfd8.bmp	blankscreen.bmp	circle.bmp
9999	real_d	real_topleft_same_d	18	1288	18	mask.bmp	blankscreen.bmp	wmd6.bmp	blankscreen.bmp	circle.bmp
9999	real_d	real_topright_diff_d	19	832	18	mask.bmp	blankscreen.bmp	wfd9.bmp	blankscreen.bmp	circle.bmp
9999	real_d	real_bottomleft_same_d	20	569	18	mask.bmp	blankscreen.bmp	wfn6.bmp	blankscreen.bmp	circle.bmp
5	practice	practice_bottomleft_same	1	2900	18	mask.bmp	blankscreen.bmp	practice6.jpg	blankscreen.bmp	circle.bmp
5	practice	practice_bottomleft_same	2	4234	23	mask.bmp	blankscreen.bmp	practice5.jpg	blankscreen.bmp	circle.bmp
5	practice	practice_topleft_same	3	507	23	mask.bmp	blankscreen.bmp	practice1.jpg	blankscreen.bmp	square.bmp
5	practice	practice_bottomleft_diff	4	5762	23	mask.bmp	blankscreen.bmp	practice11.jpg	blankscreen.bmp	circle.bmp
5	practice	practice_topright_same	5	3894	23	mask.bmp	blankscreen.bmp	practice3.jpg	blankscreen.bmp	circle.bmp
5	practice	practice_topleft_same	6	1333	23	mask.bmp	blankscreen.bmp	practice2.jpg	blankscreen.bmp	circle.bmp
5	practice	practice_bottomright_same	7	570	23	mask.bmp	blankscreen.bmp	practice8.jpg	blankscreen.bmp	circle.bmp
5	practice	practice_topright_diff	8	1566	23	mask.bmp	blankscreen.bmp	practice10.jpg	blankscreen.bmp	square.bmp
5	practice	practice_topleft_diff	9	4810	23	mask.bmp	blankscreen.bmp	practice9.jpg	blankscreen.bmp	square.bmp
5	practice	practice_bottomright_diff	10	1332	18	mask.bmp	blankscreen.bmp	practice12.jpg	blankscreen.bmp	circle.bmp
5	practice	practice_topright_same	11	586	18	mask.bmp	blankscreen.bmp	practice4.jpg	blankscreen.bmp	circle.bmp
5	practice	practice_bottomright_same	12	2109	18	mask.bmp	blankscreen.bmp	practice7.jpg	blankscreen.bmp	circle.bmp
5	real_a	real_topright_diff_a	1	767	18	mask.bmp	blankscreen.bmp	wmd3.bmp	blankscreen.bmp	circle.bmp
5	real_a	real_topright_same_a	2	924	23	mask.bmp	blankscreen.bmp	wmn4.bmp	blankscreen.bmp	square.bmp
5	real_a	real_topright_diff_a	3	865	23	mask.bmp	blankscreen.bmp	wmn1.bmp	blankscreen.bmp	square.bmp
5	real_a	real_topleft_diff_a	4	1161	18	mask.bmp	blankscreen.bmp	wfn3.bmp	blankscreen.bmp	circle.bmp
5	real_a	real_bottomleft_diff_a	5	597	18	mask.bmp	blankscreen.bmp	wmn2.bmp	blankscreen.bmp	circle.bmp
5	real_a	real_bottomright_diff_a	6	648	18	mask.bmp	blankscreen.bmp	wfn2.bmp	blankscreen.bmp	circle.bmp
5	real_a	real_bottomright_diff_a	7	456	18	mask.bmp	blankscreen.bmp	wmn3.bmp	blankscreen.bmp	circle.bmp
5	real_a	real_bottomleft_same_a	8	529	18	mask.bmp	blankscreen.bmp	wmd4.bmp	blankscreen.bmp	circle.bmp
5	real_a	real_bottomright_same_a	9	1542	23	mask.bmp	blankscreen.bmp	wmn5.bmp	blankscreen.bmp	square.bmp
5	real_a	real_bottomleft_same_a	10	899	23	mask.bmp	blankscreen.bmp	wfn5.bmp	blankscreen.bmp	square.bmp
5	real_a	real_topright_same_a	11	954	23	mask.bmp	blankscreen.bmp	wfd5.bmp	blankscreen.bmp	square.bmp
5	real_a	real_topleft_same_a	12	526	18	mask.bmp	blankscreen.bmp	wfn4.bmp	blankscreen.bmp	circle.bmp
5	real_a	real_topleft_diff_a	13	740	18	mask.bmp	blankscreen.bmp	wfd1.bmp	blankscreen.bmp	circle.bmp
5	real_a	real_bottomleft_diff_a	14	2130	18	mask.bmp	blankscreen.bmp	wfd3.bmp	blankscreen.bmp	circle.bmp
5	real_a	real_bottomleft_diff_a	15	599	23	mask.bmp	blankscreen.bmp	wfn1.bmp	blankscreen.bmp	square.bmp
5	real_a	real_bottomright_diff_a	16	506	18	mask.bmp	blankscreen.bmp	wmd1.bmp	blankscreen.bmp	circle.bmp
5	real_a	real_topright_diff_a	17	832	23	mask.bmp	blankscreen.bmp	wfd2.bmp	blankscreen.bmp	square.bmp
5	real_a	real_bottomright_same_a	18	842	18	mask.bmp	blankscreen.bmp	wmd5.bmp	blankscreen.bmp	circle.bmp
5	real_a	real_topleft_diff_a	19	739	18	mask.bmp	blankscreen.bmp	wmd2.bmp	blankscreen.bmp	circle.bmp
5	real_a	real_topleft_same_a	20	496	18	mask.bmp	blankscreen.bmp	wfd4.bmp	blankscreen.bmp	circle.bmp
5	real_b	real_topright_diff_b	1	809	23	mask.bmp	blankscreen.bmp	wfd8.bmp	blankscreen.bmp	square.bmp
5	real_b	real_bottomright_diff_b	2	804	18	mask.bmp	blankscreen.bmp	wmd7.bmp	blankscreen.bmp	circle.bmp
5	real_b	real_bottomleft_same_b	3	1726	23	mask.bmp	blankscreen.bmp	wfd9.bmp	blankscreen.bmp	square.bmp
5	real_b	real_topright_same_b	4	964	18	mask.bmp	blankscreen.bmp	wmn10.bmp	blankscreen.bmp	circle.bmp
5	real_b	real_bottomleft_diff_b	5	680	18	mask.bmp	blankscreen.bmp	wfn7.bmp	blankscreen.bmp	circle.bmp
5	real_b	real_bottomright_diff_b	6	648	18	mask.bmp	blankscreen.bmp	wfd6.bmp	blankscreen.bmp	circle.bmp
5	real_b	real_bottomleft_diff_b	7	1416	23	mask.bmp	blankscreen.bmp	wmd6.bmp	blankscreen.bmp	square.bmp
5	real_b	real_bottomleft_diff_b	8	938	18	mask.bmp	blankscreen.bmp	wmn8.bmp	blankscreen.bmp	circle.bmp
5	real_b	real_bottomleft_same_b	9	544	18	mask.bmp	blankscreen.bmp	wmd10.bmp	blankscreen.bmp	circle.bmp
5	real_b	real_topleft_diff_b	10	693	23	mask.bmp	blankscreen.bmp	wmn6.bmp	blankscreen.bmp	square.bmp
5	real_b	real_topleft_same_b	11	596	18	mask.bmp	blankscreen.bmp	wmd9.bmp	blankscreen.bmp	circle.bmp
5	real_b	real_topright_diff_b	12	631	18	mask.bmp	blankscreen.bmp	wmn7.bmp	blankscreen.bmp	circle.bmp
5	real_b	real_topleft_diff_b	13	1048	23	mask.bmp	blankscreen.bmp	wmd8.bmp	blankscreen.bmp	square.bmp
5	real_b	real_bottomright_same_b	14	489	18	mask.bmp	blankscreen.bmp	wfn10.bmp	blankscreen.bmp	circle.bmp
5	real_b	real_topleft_diff_b	15	1728	23	mask.bmp	blankscreen.bmp	wfd7.bmp	blankscreen.bmp	square.bmp
5	real_b	real_topright_diff_b	16	518	18	mask.bmp	blankscreen.bmp	wfn6.bmp	blankscreen.bmp	circle.bmp
5	real_b	real_bottomright_diff_b	17	796	23	mask.bmp	blankscreen.bmp	wfn8.bmp	blankscreen.bmp	square.bmp
5	real_b	real_bottomright_same_b	18	534	23	mask.bmp	blankscreen.bmp	wfd10.bmp	blankscreen.bmp	square.bmp
5	real_b	real_topleft_same_b	19	699	18	mask.bmp	blankscreen.bmp	wmn9.bmp	blankscreen.bmp	circle.bmp
5	real_b	real_topright_same_b	20	2074	18	mask.bmp	blankscreen.bmp	wfn9.bmp	blankscreen.bmp	circle.bmp
5	real_c	real_bottomleft_diff_c	1	540	23	mask.bmp	blankscreen.bmp	wfn3.bmp	blankscreen.bmp	square.bmp
5	real_c	real_topright_diff_c	2	449	23	mask.bmp	blankscreen.bmp	wfn5.bmp	blankscreen.bmp	square.bmp
5	real_c	real_bottomleft_same_c	3	474	18	mask.bmp	blankscreen.bmp	wfd2.bmp	blankscreen.bmp	circle.bmp
5	real_c	real_topleft_diff_c	4	994	23	mask.bmp	blankscreen.bmp	wmn5.bmp	blankscreen.bmp	square.bmp
5	real_c	real_topright_same_c	5	389	18	mask.bmp	blankscreen.bmp	wfn2.bmp	blankscreen.bmp	circle.bmp
5	real_c	real_topright_diff_c	6	592	18	mask.bmp	blankscreen.bmp	wmn3.bmp	blankscreen.bmp	circle.bmp
5	real_c	real_bottomright_diff_c	7	643	23	mask.bmp	blankscreen.bmp	wfd5.bmp	blankscreen.bmp	square.bmp
5	real_c	real_topright_same_c	8	357	18	mask.bmp	blankscreen.bmp	wmd1.bmp	blankscreen.bmp	square.bmp
5	real_c	real_bottomleft_diff_c	9	593	23	mask.bmp	blankscreen.bmp	wmd5.bmp	blankscreen.bmp	square.bmp
5	real_c	real_topright_diff_c	10	580	23	mask.bmp	blankscreen.bmp	wmd4.bmp	blankscreen.bmp	square.bmp
5	real_c	real_bottomright_diff_c	11	664	18	mask.bmp	blankscreen.bmp	wmn4.bmp	blankscreen.bmp	circle.bmp
5	real_c	real_bottomleft_diff_c	12	679	18	mask.bmp	blankscreen.bmp	wfd4.bmp	blankscreen.bmp	circle.bmp
5	real_c	real_bottomright_same_c	13	504	23	mask.bmp	blankscreen.bmp	wmd2.bmp	blankscreen.bmp	square.bmp
5	real_c	real_topleft_diff_c	14	1550	18	mask.bmp	blankscreen.bmp	wfd3.bmp	blankscreen.bmp	circle.bmp
5	real_c	real_bottomright_same_c	15	522	23	mask.bmp	blankscreen.bmp	wmn2.bmp	blankscreen.bmp	square.bmp
5	real_c	real_topleft_diff_c	16	448	23	mask.bmp	blankscreen.bmp	wfn4.bmp	blankscreen.bmp	square.bmp
5	real_c	real_bottomleft_same_c	17	473	23	mask.bmp	blankscreen.bmp	wmn1.bmp	blankscreen.bmp	square.bmp
5	real_c	real_topleft_same_c	18	513	18	mask.bmp	blankscreen.bmp	wfd1.bmp	blankscreen.bmp	circle.bmp
5	real_c	real_bottomright_diff_c	19	567	23	mask.bmp	blankscreen.bmp	wmd3.bmp	blankscreen.bmp	square.bmp
5	real_c	real_topleft_same_c	20	475	23	mask.bmp	blankscreen.bmp	wfn1.bmp	blankscreen.bmp	square.bmp
5	real_d	real_topright_same_d	1	568	23	mask.bmp	blankscreen.bmp	wmd7.bmp	blankscreen.bmp	square.bmp
5	real_d	real_topleft_diff_d	2	555	18	mask.bmp	blankscreen.bmp	wfn10.bmp	blankscreen.bmp	circle.bmp
5	real_d	real_bottomright_diff_d	3	752	18	mask.bmp	blankscreen.bmp	wfn9.bmp	blankscreen.bmp	circle.bmp
5	real_d	real_bottomright_same_d	4	653	23	mask.bmp	blankscreen.bmp	wfd7.bmp	blankscreen.bmp	square.bmp
5	real_d	real_bottomleft_diff_d	5	509	23	mask.bmp	blankscreen.bmp	wmd8.bmp	blankscreen.bmp	square.bmp
5	real_d	real_bottomleft_same_d	6	532	18	mask.bmp	blankscreen.bmp	wfn6.bmp	blankscreen.bmp	circle.bmp
5	real_d	real_topleft_same_d	7	521	23	mask.bmp	blankscreen.bmp	wmn6.bmp	blankscreen.bmp	square.bmp
5	real_d	real_topleft_diff_d	8	799	23	mask.bmp	blankscreen.bmp	wmn8.bmp	blankscreen.bmp	square.bmp
5	real_d	real_topleft_diff_d	9	649	18	mask.bmp	blankscreen.bmp	wmd9.bmp	blankscreen.bmp	circle.bmp
5	real_d	real_bottomright_same_d	10	1434	23	mask.bmp	blankscreen.bmp	wfn7.bmp	blankscreen.bmp	square.bmp
5	real_d	real_bottomright_diff_d	11	539	23	mask.bmp	blankscreen.bmp	wmn10.bmp	blankscreen.bmp	square.bmp
5	real_d	real_topright_same_d	12	592	18	mask.bmp	blankscreen.bmp	wfd6.bmp	blankscreen.bmp	circle.bmp
5	real_d	real_bottomright_diff_d	13	851	18	mask.bmp	blankscreen.bmp	wfd8.bmp	blankscreen.bmp	circle.bmp
5	real_d	real_topright_diff_d	14	1004	18	mask.bmp	blankscreen.bmp	wmd10.bmp	blankscreen.bmp	circle.bmp
5	real_d	real_bottomleft_diff_d	15	478	18	mask.bmp	blankscreen.bmp	wmn9.bmp	blankscreen.bmp	circle.bmp
5	real_d	real_topright_diff_d	16	742	23	mask.bmp	blankscreen.bmp	wfd9.bmp	blankscreen.bmp	square.bmp
5	real_d	real_bottomleft_same_d	17	660	18	mask.bmp	blankscreen.bmp	wmn7.bmp	blankscreen.bmp	circle.bmp
5	real_d	real_bottomleft_diff_d	18	660	23	mask.bmp	blankscreen.bmp	wfd10.bmp	blankscreen.bmp	square.bmp
5	real_d	real_topleft_same_d	19	597	23	mask.bmp	blankscreen.bmp	wmd6.bmp	blankscreen.bmp	square.bmp
5	real_d	real_topright_diff_d	20	647	23	mask.bmp	blankscreen.bmp	wfn8.bmp	blankscreen.bmp	square.bmp
9	practice	practice_topleft_diff	1	746	18	mask.bmp	blankscreen.bmp	practice9.jpg	blankscreen.bmp	circle.bmp
9	practice	practice_bottomright_same	2	615	23	mask.bmp	blankscreen.bmp	practice8.jpg	blankscreen.bmp	square.bmp
9	practice	practice_topleft_same	3	441	18	mask.bmp	blankscreen.bmp	practice2.jpg	blankscreen.bmp	circle.bmp
9	practice	practice_bottomleft_diff	4	530	18	mask.bmp	blankscreen.bmp	practice11.jpg	blankscreen.bmp	circle.bmp
9	practice	practice_topright_same	5	456	18	mask.bmp	blankscreen.bmp	practice3.jpg	blankscreen.bmp	circle.bmp
9	practice	practice_bottomright_same	6	400	23	mask.bmp	blankscreen.bmp	practice7.jpg	blankscreen.bmp	square.bmp
9	practice	practice_bottomright_diff	7	475	23	mask.bmp	blankscreen.bmp	practice12.jpg	blankscreen.bmp	square.bmp
9	practice	practice_bottomleft_same	8	339	18	mask.bmp	blankscreen.bmp	practice6.jpg	blankscreen.bmp	square.bmp
9	practice	practice_topright_diff	9	368	23	mask.bmp	blankscreen.bmp	practice10.jpg	blankscreen.bmp	circle.bmp
9	practice	practice_bottomleft_same	10	412	18	mask.bmp	blankscreen.bmp	practice5.jpg	blankscreen.bmp	circle.bmp
9	practice	practice_topleft_same	11	502	23	mask.bmp	blankscreen.bmp	practice1.jpg	blankscreen.bmp	square.bmp
9	practice	practice_topright_same	12	381	18	mask.bmp	blankscreen.bmp	practice4.jpg	blankscreen.bmp	square.bmp
9	real_a	real_bottomright_diff_a	1	919	18	mask.bmp	blankscreen.bmp	wfn2.bmp	blankscreen.bmp	circle.bmp
9	real_a	real_bottomright_same_a	2	685	18	mask.bmp	blankscreen.bmp	wmd5.bmp	blankscreen.bmp	circle.bmp
9	real_a	real_bottomleft_diff_a	3	636	23	mask.bmp	blankscreen.bmp	wmn2.bmp	blankscreen.bmp	square.bmp
9	real_a	real_topright_diff_a	4	605	18	mask.bmp	blankscreen.bmp	wmd3.bmp	blankscreen.bmp	circle.bmp
9	real_a	real_topleft_diff_a	5	704	18	mask.bmp	blankscreen.bmp	wmd2.bmp	blankscreen.bmp	circle.bmp
9	real_a	real_topleft_same_a	6	638	18	mask.bmp	blankscreen.bmp	wfn4.bmp	blankscreen.bmp	circle.bmp
9	real_a	real_bottomright_diff_a	7	543	18	mask.bmp	blankscreen.bmp	wmd1.bmp	blankscreen.bmp	circle.bmp
9	real_a	real_topleft_diff_a	8	597	18	mask.bmp	blankscreen.bmp	wfn3.bmp	blankscreen.bmp	circle.bmp
9	real_a	real_topright_diff_a	9	423	23	mask.bmp	blankscreen.bmp	wmn1.bmp	blankscreen.bmp	square.bmp
9	real_a	real_bottomleft_same_a	10	577	18	mask.bmp	blankscreen.bmp	wfn5.bmp	blankscreen.bmp	circle.bmp
9	real_a	real_topleft_diff_a	11	501	23	mask.bmp	blankscreen.bmp	wfd1.bmp	blankscreen.bmp	square.bmp
9	real_a	real_bottomleft_same_a	12	827	23	mask.bmp	blankscreen.bmp	wmd4.bmp	blankscreen.bmp	square.bmp
9	real_a	real_topleft_same_a	13	597	18	mask.bmp	blankscreen.bmp	wfd4.bmp	blankscreen.bmp	circle.bmp
9	real_a	real_bottomleft_diff_a	14	616	23	mask.bmp	blankscreen.bmp	wfn1.bmp	blankscreen.bmp	square.bmp
9	real_a	real_bottomleft_diff_a	15	522	23	mask.bmp	blankscreen.bmp	wfd3.bmp	blankscreen.bmp	circle.bmp
9	real_a	real_topright_same_a	16	560	18	mask.bmp	blankscreen.bmp	wfd5.bmp	blankscreen.bmp	circle.bmp
9	real_a	real_bottomright_same_a	17	660	18	mask.bmp	blankscreen.bmp	wmn5.bmp	blankscreen.bmp	circle.bmp
9	real_a	real_topright_same_a	18	549	23	mask.bmp	blankscreen.bmp	wmn4.bmp	blankscreen.bmp	square.bmp
9	real_a	real_topright_diff_a	19	601	18	mask.bmp	blankscreen.bmp	wfd2.bmp	blankscreen.bmp	circle.bmp
9	real_a	real_bottomright_diff_a	20	684	23	mask.bmp	blankscreen.bmp	wmn3.bmp	blankscreen.bmp	square.bmp
9	real_b	real_topright_diff_b	1	522	18	mask.bmp	blankscreen.bmp	wmn7.bmp	blankscreen.bmp	circle.bmp
9	real_b	real_bottomleft_same_b	2	512	23	mask.bmp	blankscreen.bmp	wmd10.bmp	blankscreen.bmp	square.bmp
9	real_b	real_bottomright_same_b	3	535	18	mask.bmp	blankscreen.bmp	wfd10.bmp	blankscreen.bmp	circle.bmp
9	real_b	real_bottomleft_diff_b	4	556	18	mask.bmp	blankscreen.bmp	wmd6.bmp	blankscreen.bmp	circle.bmp
9	real_b	real_bottomleft_same_b	5	560	23	mask.bmp	blankscreen.bmp	wfd9.bmp	blankscreen.bmp	square.bmp
9	real_b	real_topleft_same_b	6	421	18	mask.bmp	blankscreen.bmp	wmd9.bmp	blankscreen.bmp	circle.bmp
9	real_b	real_bottomright_same_b	7	607	18	mask.bmp	blankscreen.bmp	wfn10.bmp	blankscreen.bmp	circle.bmp
9	real_b	real_bottomleft_diff_b	8	529	18	mask.bmp	blankscreen.bmp	wmn8.bmp	blankscreen.bmp	circle.bmp
9	real_b	real_bottomright_diff_b	9	375	18	mask.bmp	blankscreen.bmp	wmd7.bmp	blankscreen.bmp	circle.bmp
9	real_b	real_topleft_same_b	10	499	23	mask.bmp	blankscreen.bmp	wmn9.bmp	blankscreen.bmp	square.bmp
9	real_b	real_topleft_diff_b	11	474	18	mask.bmp	blankscreen.bmp	wmd8.bmp	blankscreen.bmp	circle.bmp
9	real_b	real_topright_diff_b	12	498	18	mask.bmp	blankscreen.bmp	wfd8.bmp	blankscreen.bmp	circle.bmp
9	real_b	real_topright_diff_b	13	552	18	mask.bmp	blankscreen.bmp	wfn6.bmp	blankscreen.bmp	square.bmp
9	real_b	real_topright_same_b	14	557	18	mask.bmp	blankscreen.bmp	wfn9.bmp	blankscreen.bmp	circle.bmp
9	real_b	real_bottomleft_diff_b	15	529	23	mask.bmp	blankscreen.bmp	wfn7.bmp	blankscreen.bmp	square.bmp
9	real_b	real_bottomright_diff_b	16	551	18	mask.bmp	blankscreen.bmp	wfd6.bmp	blankscreen.bmp	circle.bmp
9	real_b	real_bottomright_diff_b	17	572	23	mask.bmp	blankscreen.bmp	wfn8.bmp	blankscreen.bmp	square.bmp
9	real_b	real_topleft_diff_b	18	655	18	mask.bmp	blankscreen.bmp	wmn6.bmp	blankscreen.bmp	circle.bmp
9	real_b	real_topleft_diff_b	19	656	18	mask.bmp	blankscreen.bmp	wfd7.bmp	blankscreen.bmp	square.bmp
9	real_b	real_topright_same_b	20	529	23	mask.bmp	blankscreen.bmp	wmn10.bmp	blankscreen.bmp	square.bmp
9	real_c	real_bottomleft_diff_c	1	580	23	mask.bmp	blankscreen.bmp	wfn3.bmp	blankscreen.bmp	square.bmp
9	real_c	real_bottomleft_diff_c	2	472	23	mask.bmp	blankscreen.bmp	wmd5.bmp	blankscreen.bmp	square.bmp
9	real_c	real_topright_same_c	3	512	18	mask.bmp	blankscreen.bmp	wmd1.bmp	blankscreen.bmp	circle.bmp
9	real_c	real_bottomleft_same_c	4	503	18	mask.bmp	blankscreen.bmp	wfd2.bmp	blankscreen.bmp	circle.bmp
9	real_c	real_topleft_same_c	5	509	18	mask.bmp	blankscreen.bmp	wfd1.bmp	blankscreen.bmp	circle.bmp
9	real_c	real_topright_diff_c	6	596	18	mask.bmp	blankscreen.bmp	wmn3.bmp	blankscreen.bmp	circle.bmp
9	real_c	real_topleft_diff_c	7	551	23	mask.bmp	blankscreen.bmp	wfd3.bmp	blankscreen.bmp	square.bmp
9	real_c	real_bottomleft_same_c	8	555	18	mask.bmp	blankscreen.bmp	wmn1.bmp	blankscreen.bmp	circle.bmp
9	real_c	real_bottomleft_diff_c	9	496	23	mask.bmp	blankscreen.bmp	wfd4.bmp	blankscreen.bmp	square.bmp
9	real_c	real_bottomright_diff_c	10	599	18	mask.bmp	blankscreen.bmp	wmn4.bmp	blankscreen.bmp	circle.bmp
9	real_c	real_bottomright_same_c	11	554	23	mask.bmp	blankscreen.bmp	wmn2.bmp	blankscreen.bmp	square.bmp
9	real_c	real_topleft_diff_c	12	414	23	mask.bmp	blankscreen.bmp	wmn5.bmp	blankscreen.bmp	square.bmp
9	real_c	real_bottomright_same_c	13	568	18	mask.bmp	blankscreen.bmp	wmd2.bmp	blankscreen.bmp	circle.bmp
9	real_c	real_topleft_same_c	14	508	23	mask.bmp	blankscreen.bmp	wfn1.bmp	blankscreen.bmp	square.bmp
9	real_c	real_topright_same_c	15	467	23	mask.bmp	blankscreen.bmp	wfn2.bmp	blankscreen.bmp	square.bmp
9	real_c	real_topright_diff_c	16	635	23	mask.bmp	blankscreen.bmp	wmd4.bmp	blankscreen.bmp	square.bmp
9	real_c	real_topright_diff_c	17	556	18	mask.bmp	blankscreen.bmp	wfn5.bmp	blankscreen.bmp	circle.bmp
9	real_c	real_bottomright_diff_c	18	576	23	mask.bmp	blankscreen.bmp	wmd3.bmp	blankscreen.bmp	square.bmp
9	real_c	real_bottomright_diff_c	19	612	18	mask.bmp	blankscreen.bmp	wfd5.bmp	blankscreen.bmp	circle.bmp
9	real_c	real_topleft_diff_c	20	566	18	mask.bmp	blankscreen.bmp	wfn4.bmp	blankscreen.bmp	circle.bmp
9	real_d	real_bottomright_same_d	1	543	23	mask.bmp	blankscreen.bmp	wfn7.bmp	blankscreen.bmp	square.bmp
9	real_d	real_bottomright_same_d	2	548	18	mask.bmp	blankscreen.bmp	wfd7.bmp	blankscreen.bmp	circle.bmp
9	real_d	real_bottomright_diff_d	3	697	23	mask.bmp	blankscreen.bmp	wfd8.bmp	blankscreen.bmp	square.bmp
9	real_d	real_bottomleft_diff_d	4	471	23	mask.bmp	blankscreen.bmp	wfd10.bmp	blankscreen.bmp	square.bmp
9	real_d	real_topright_diff_d	5	511	18	mask.bmp	blankscreen.bmp	wfd9.bmp	blankscreen.bmp	circle.bmp
9	real_d	real_topleft_diff_d	6	550	18	mask.bmp	blankscreen.bmp	wmd9.bmp	blankscreen.bmp	circle.bmp
9	real_d	real_bottomright_diff_d	7	506	18	mask.bmp	blankscreen.bmp	wmn10.bmp	blankscreen.bmp	circle.bmp
9	real_d	real_topright_same_d	8	513	23	mask.bmp	blankscreen.bmp	wmd7.bmp	blankscreen.bmp	square.bmp
9	real_d	real_bottomleft_same_d	9	424	18	mask.bmp	blankscreen.bmp	wmn7.bmp	blankscreen.bmp	circle.bmp
9	real_d	real_topright_diff_d	10	529	23	mask.bmp	blankscreen.bmp	wfn8.bmp	blankscreen.bmp	square.bmp
9	real_d	real_bottomleft_diff_d	11	503	18	mask.bmp	blankscreen.bmp	wmn9.bmp	blankscreen.bmp	circle.bmp
9	real_d	real_topright_diff_d	12	526	23	mask.bmp	blankscreen.bmp	wmd10.bmp	blankscreen.bmp	square.bmp
9	real_d	real_topleft_same_d	13	420	18	mask.bmp	blankscreen.bmp	wmd6.bmp	blankscreen.bmp	square.bmp
9	real_d	real_bottomleft_same_d	14	414	18	mask.bmp	blankscreen.bmp	wfn6.bmp	blankscreen.bmp	circle.bmp
9	real_d	real_topleft_same_d	15	520	18	mask.bmp	blankscreen.bmp	wmn6.bmp	blankscreen.bmp	circle.bmp
9	real_d	real_bottomleft_diff_d	16	510	23	mask.bmp	blankscreen.bmp	wmd8.bmp	blankscreen.bmp	circle.bmp
9	real_d	real_topleft_diff_d	17	613	18	mask.bmp	blankscreen.bmp	wmn8.bmp	blankscreen.bmp	circle.bmp
9	real_d	real_topleft_diff_d	18	551	18	mask.bmp	blankscreen.bmp	wfn10.bmp	blankscreen.bmp	circle.bmp
9	real_d	real_topright_same_d	19	492	18	mask.bmp	blankscreen.bmp	wfd6.bmp	blankscreen.bmp	circle.bmp
9	real_d	real_bottomright_diff_d	20	579	18	mask.bmp	blankscreen.bmp	wfn9.bmp	blankscreen.bmp	circle.bmp
11	practice	practice_bottomright_same	1	907	18	mask.bmp	blankscreen.bmp	practice7.jpg	blankscreen.bmp	circle.bmp
11	practice	practice_bottomright_same	2	802	23	mask.bmp	blankscreen.bmp	practice8.jpg	blankscreen.bmp	square.bmp
11	practice	practice_topright_same	3	668	18	mask.bmp	blankscreen.bmp	practice4.jpg	blankscreen.bmp	circle.bmp
11	practice	practice_topright_same	4	652	23	mask.bmp	blankscreen.bmp	practice3.jpg	blankscreen.bmp	square.bmp
11	practice	practice_bottomleft_diff	5	1005	23	mask.bmp	blankscreen.bmp	practice11.jpg	blankscreen.bmp	square.bmp
11	practice	practice_bottomright_diff	6	735	18	mask.bmp	blankscreen.bmp	practice12.jpg	blankscreen.bmp	circle.bmp
11	practice	practice_topleft_diff	7	845	18	mask.bmp	blankscreen.bmp	practice9.jpg	blankscreen.bmp	circle.bmp
11	practice	practice_bottomleft_same	8	790	18	mask.bmp	blankscreen.bmp	practice6.jpg	blankscreen.bmp	circle.bmp
11	practice	practice_bottomleft_same	9	785	18	mask.bmp	blankscreen.bmp	practice5.jpg	blankscreen.bmp	circle.bmp
11	practice	practice_topright_diff	10	924	23	mask.bmp	blankscreen.bmp	practice10.jpg	blankscreen.bmp	square.bmp
11	practice	practice_topleft_same	11	738	18	mask.bmp	blankscreen.bmp	practice1.jpg	blankscreen.bmp	circle.bmp
11	practice	practice_topleft_same	12	623	18	mask.bmp	blankscreen.bmp	practice2.jpg	blankscreen.bmp	circle.bmp
11	real_a	real_topright_diff_a	1	948	18	mask.bmp	blankscreen.bmp	wfd2.bmp	blankscreen.bmp	circle.bmp
11	real_a	real_bottomleft_diff_a	2	1448	23	mask.bmp	blankscreen.bmp	wfd3.bmp	blankscreen.bmp	square.bmp
11	real_a	real_bottomleft_same_a	3	745	18	mask.bmp	blankscreen.bmp	wfn5.bmp	blankscreen.bmp	circle.bmp
11	real_a	real_topleft_same_a	4	1222	18	mask.bmp	blankscreen.bmp	wfd4.bmp	blankscreen.bmp	circle.bmp
11	real_a	real_topright_diff_a	5	944	18	mask.bmp	blankscreen.bmp	wmd3.bmp	blankscreen.bmp	circle.bmp
11	real_a	real_bottomright_same_a	6	709	18	mask.bmp	blankscreen.bmp	wmd5.bmp	blankscreen.bmp	circle.bmp
11	real_a	real_bottomleft_same_a	7	707	23	mask.bmp	blankscreen.bmp	wmd4.bmp	blankscreen.bmp	square.bmp
11	real_a	real_bottomright_diff_a	8	1154	23	mask.bmp	blankscreen.bmp	wmn3.bmp	blankscreen.bmp	square.bmp
11	real_a	real_topright_same_a	9	878	23	mask.bmp	blankscreen.bmp	wfd5.bmp	blankscreen.bmp	square.bmp
11	real_a	real_bottomleft_diff_a	10	790	18	mask.bmp	blankscreen.bmp	wfn1.bmp	blankscreen.bmp	circle.bmp
11	real_a	real_topright_same_a	11	770	23	mask.bmp	blankscreen.bmp	wmn4.bmp	blankscreen.bmp	square.bmp
11	real_a	real_bottomleft_diff_a	12	606	18	mask.bmp	blankscreen.bmp	wmn2.bmp	blankscreen.bmp	circle.bmp
11	real_a	real_topleft_diff_a	13	928	18	mask.bmp	blankscreen.bmp	wfd1.bmp	blankscreen.bmp	circle.bmp
11	real_a	real_topright_diff_a	14	774	18	mask.bmp	blankscreen.bmp	wmn1.bmp	blankscreen.bmp	circle.bmp
11	real_a	real_bottomright_diff_a	15	962	18	mask.bmp	blankscreen.bmp	wfn2.bmp	blankscreen.bmp	circle.bmp
11	real_a	real_topleft_diff_a	16	758	18	mask.bmp	blankscreen.bmp	wmd2.bmp	blankscreen.bmp	circle.bmp
11	real_a	real_bottomright_diff_a	17	1059	23	mask.bmp	blankscreen.bmp	wmd1.bmp	blankscreen.bmp	square.bmp
11	real_a	real_bottomright_same_a	18	819	18	mask.bmp	blankscreen.bmp	wmn5.bmp	blankscreen.bmp	circle.bmp
11	real_a	real_topleft_same_a	19	989	18	mask.bmp	blankscreen.bmp	wfn4.bmp	blankscreen.bmp	circle.bmp
11	real_a	real_topleft_diff_a	20	608	18	mask.bmp	blankscreen.bmp	wfn3.bmp	blankscreen.bmp	circle.bmp
11	real_b	real_bottomright_diff_b	1	712	23	mask.bmp	blankscreen.bmp	wfn8.bmp	blankscreen.bmp	square.bmp
11	real_b	real_topright_diff_b	2	807	23	mask.bmp	blankscreen.bmp	wmn7.bmp	blankscreen.bmp	square.bmp
11	real_b	real_bottomleft_diff_b	3	705	18	mask.bmp	blankscreen.bmp	wfn7.bmp	blankscreen.bmp	circle.bmp
11	real_b	real_topleft_same_b	4	672	18	mask.bmp	blankscreen.bmp	wmd9.bmp	blankscreen.bmp	circle.bmp
11	real_b	real_bottomleft_same_b	5	799	23	mask.bmp	blankscreen.bmp	wfd9.bmp	blankscreen.bmp	square.bmp
11	real_b	real_topright_same_b	6	698	23	mask.bmp	blankscreen.bmp	wmn10.bmp	blankscreen.bmp	square.bmp
11	real_b	real_bottomright_diff_b	7	969	23	mask.bmp	blankscreen.bmp	wmd7.bmp	blankscreen.bmp	square.bmp
11	real_b	real_topright_same_b	8	748	23	mask.bmp	blankscreen.bmp	wfn9.bmp	blankscreen.bmp	square.bmp
11	real_b	real_topright_diff_b	9	761	18	mask.bmp	blankscreen.bmp	wfd8.bmp	blankscreen.bmp	circle.bmp
11	real_b	real_bottomright_same_b	10	614	23	mask.bmp	blankscreen.bmp	wfd10.bmp	blankscreen.bmp	square.bmp
11	real_b	real_bottomleft_same_b	11	679	23	mask.bmp	blankscreen.bmp	wmd10.bmp	blankscreen.bmp	square.bmp
11	real_b	real_bottomright_diff_b	12	807	23	mask.bmp	blankscreen.bmp	wfd6.bmp	blankscreen.bmp	square.bmp
11	real_b	real_topright_diff_b	13	802	18	mask.bmp	blankscreen.bmp	wfn6.bmp	blankscreen.bmp	circle.bmp
11	real_b	real_topleft_diff_b	14	1084	23	mask.bmp	blankscreen.bmp	wfd7.bmp	blankscreen.bmp	square.bmp
11	real_b	real_topleft_diff_b	15	940	23	mask.bmp	blankscreen.bmp	wmd8.bmp	blankscreen.bmp	square.bmp
11	real_b	real_topleft_diff_b	16	1121	23	mask.bmp	blankscreen.bmp	wmn6.bmp	blankscreen.bmp	square.bmp
11	real_b	real_bottomleft_diff_b	17	847	23	mask.bmp	blankscreen.bmp	wmn8.bmp	blankscreen.bmp	square.bmp
11	real_b	real_bottomleft_diff_b	18	695	18	mask.bmp	blankscreen.bmp	wmd6.bmp	blankscreen.bmp	circle.bmp
11	real_b	real_topleft_same_b	19	838	23	mask.bmp	blankscreen.bmp	wmn9.bmp	blankscreen.bmp	square.bmp
11	real_b	real_bottomright_same_b	20	607	18	mask.bmp	blankscreen.bmp	wfn10.bmp	blankscreen.bmp	circle.bmp
11	real_c	real_bottomleft_diff_c	1	702	23	mask.bmp	blankscreen.bmp	wfd4.bmp	blankscreen.bmp	square.bmp
11	real_c	real_bottomleft_same_c	2	604	18	mask.bmp	blankscreen.bmp	wfd2.bmp	blankscreen.bmp	circle.bmp
11	real_c	real_topleft_same_c	3	623	23	mask.bmp	blankscreen.bmp	wfd1.bmp	blankscreen.bmp	square.bmp
11	real_c	real_topright_same_c	4	721	23	mask.bmp	blankscreen.bmp	wmd1.bmp	blankscreen.bmp	square.bmp
11	real_c	real_bottomright_diff_c	5	671	18	mask.bmp	blankscreen.bmp	wmd3.bmp	blankscreen.bmp	circle.bmp
11	real_c	real_topleft_diff_c	6	799	23	mask.bmp	blankscreen.bmp	wfd3.bmp	blankscreen.bmp	square.bmp
11	real_c	real_bottomleft_same_c	7	681	18	mask.bmp	blankscreen.bmp	wmn1.bmp	blankscreen.bmp	circle.bmp
11	real_c	real_topright_diff_c	8	712	18	mask.bmp	blankscreen.bmp	wfn5.bmp	blankscreen.bmp	circle.bmp
11	real_c	real_bottomleft_diff_c	9	855	23	mask.bmp	blankscreen.bmp	wmd5.bmp	blankscreen.bmp	square.bmp
11	real_c	real_topleft_diff_c	10	847	23	mask.bmp	blankscreen.bmp	wmn5.bmp	blankscreen.bmp	square.bmp
11	real_c	real_bottomright_diff_c	11	728	23	mask.bmp	blankscreen.bmp	wfd5.bmp	blankscreen.bmp	square.bmp
11	real_c	real_topright_diff_c	12	694	18	mask.bmp	blankscreen.bmp	wmn3.bmp	blankscreen.bmp	circle.bmp
11	real_c	real_bottomleft_diff_c	13	981	23	mask.bmp	blankscreen.bmp	wfn3.bmp	blankscreen.bmp	circle.bmp
11	real_c	real_topright_same_c	14	664	18	mask.bmp	blankscreen.bmp	wfn2.bmp	blankscreen.bmp	circle.bmp
11	real_c	real_topleft_same_c	15	984	23	mask.bmp	blankscreen.bmp	wfn1.bmp	blankscreen.bmp	square.bmp
11	real_c	real_bottomright_same_c	16	907	18	mask.bmp	blankscreen.bmp	wmn2.bmp	blankscreen.bmp	circle.bmp
11	real_c	real_bottomright_same_c	17	754	18	mask.bmp	blankscreen.bmp	wmd2.bmp	blankscreen.bmp	circle.bmp
11	real_c	real_topright_diff_c	18	815	23	mask.bmp	blankscreen.bmp	wmd4.bmp	blankscreen.bmp	square.bmp
11	real_c	real_bottomright_diff_c	19	616	18	mask.bmp	blankscreen.bmp	wmn4.bmp	blankscreen.bmp	circle.bmp
11	real_c	real_topleft_diff_c	20	746	18	mask.bmp	blankscreen.bmp	wfn4.bmp	blankscreen.bmp	circle.bmp
11	real_d	real_bottomleft_same_d	1	567	23	mask.bmp	blankscreen.bmp	wfn6.bmp	blankscreen.bmp	square.bmp
11	real_d	real_topright_diff_d	2	826	23	mask.bmp	blankscreen.bmp	wfn8.bmp	blankscreen.bmp	square.bmp
11	real_d	real_topright_same_d	3	596	23	mask.bmp	blankscreen.bmp	wmd7.bmp	blankscreen.bmp	square.bmp
11	real_d	real_bottomright_diff_d	4	728	23	mask.bmp	blankscreen.bmp	wfd8.bmp	blankscreen.bmp	square.bmp
11	real_d	real_topleft_same_d	5	709	18	mask.bmp	blankscreen.bmp	wmn6.bmp	blankscreen.bmp	circle.bmp
11	real_d	real_topleft_same_d	6	884	23	mask.bmp	blankscreen.bmp	wmd6.bmp	blankscreen.bmp	square.bmp
11	real_d	real_topleft_diff_d	7	699	18	mask.bmp	blankscreen.bmp	wfn10.bmp	blankscreen.bmp	circle.bmp
11	real_d	real_topright_diff_d	8	1114	23	mask.bmp	blankscreen.bmp	wfd9.bmp	blankscreen.bmp	square.bmp
11	real_d	real_bottomright_same_d	9	696	23	mask.bmp	blankscreen.bmp	wfd7.bmp	blankscreen.bmp	square.bmp
11	real_d	real_topleft_diff_d	10	743	23	mask.bmp	blankscreen.bmp	wmn8.bmp	blankscreen.bmp	square.bmp
11	real_d	real_bottomleft_diff_d	11	644	23	mask.bmp	blankscreen.bmp	wfd10.bmp	blankscreen.bmp	square.bmp
11	real_d	real_topleft_diff_d	12	597	23	mask.bmp	blankscreen.bmp	wmd9.bmp	blankscreen.bmp	square.bmp
11	real_d	real_topright_same_d	13	712	18	mask.bmp	blankscreen.bmp	wfd6.bmp	blankscreen.bmp	circle.bmp
11	real_d	real_bottomleft_diff_d	14	582	18	mask.bmp	blankscreen.bmp	wmd8.bmp	blankscreen.bmp	circle.bmp
11	real_d	real_topright_diff_d	15	586	23	mask.bmp	blankscreen.bmp	wmd10.bmp	blankscreen.bmp	square.bmp
11	real_d	real_bottomright_same_d	16	637	23	mask.bmp	blankscreen.bmp	wfn7.bmp	blankscreen.bmp	square.bmp
11	real_d	real_bottomleft_same_d	17	638	23	mask.bmp	blankscreen.bmp	wmn7.bmp	blankscreen.bmp	square.bmp
11	real_d	real_bottomright_diff_d	18	623	23	mask.bmp	blankscreen.bmp	wmn10.bmp	blankscreen.bmp	square.bmp
11	real_d	real_bottomleft_diff_d	19	673	18	mask.bmp	blankscreen.bmp	wmn9.bmp	blankscreen.bmp	circle.bmp
11	real_d	real_bottomright_diff_d	20	641	23	mask.bmp	blankscreen.bmp	wfn9.bmp	blankscreen.bmp	square.bmp
14	practice	practice_topright_same	1	3559	23	mask.bmp	blankscreen.bmp	practice4.jpg	blankscreen.bmp	square.bmp
14	practice	practice_bottomleft_same	2	947	23	mask.bmp	blankscreen.bmp	practice6.jpg	blankscreen.bmp	square.bmp
14	practice	practice_topleft_same	3	407	18	mask.bmp	blankscreen.bmp	practice1.jpg	blankscreen.bmp	circle.bmp
14	practice	practice_topright_diff	4	658	18	mask.bmp	blankscreen.bmp	practice10.jpg	blankscreen.bmp	circle.bmp
14	practice	practice_bottomleft_same	5	707	18	mask.bmp	blankscreen.bmp	practice5.jpg	blankscreen.bmp	circle.bmp
14	practice	practice_topright_same	6	689	18	mask.bmp	blankscreen.bmp	practice3.jpg	blankscreen.bmp	circle.bmp
14	practice	practice_bottomleft_diff	7	880	23	mask.bmp	blankscreen.bmp	practice11.jpg	blankscreen.bmp	square.bmp
14	practice	practice_topleft_diff	8	504	18	mask.bmp	blankscreen.bmp	practice9.jpg	blankscreen.bmp	circle.bmp
14	practice	practice_bottomright_same	9	735	23	mask.bmp	blankscreen.bmp	practice8.jpg	blankscreen.bmp	square.bmp
14	practice	practice_bottomright_same	10	460	23	mask.bmp	blankscreen.bmp	practice7.jpg	blankscreen.bmp	square.bmp
14	practice	practice_bottomright_diff	11	757	18	mask.bmp	blankscreen.bmp	practice12.jpg	blankscreen.bmp	circle.bmp
14	practice	practice_topleft_same	12	657	18	mask.bmp	blankscreen.bmp	practice2.jpg	blankscreen.bmp	circle.bmp
14	real_a	real_bottomleft_diff_a	1	1834	23	mask.bmp	blankscreen.bmp	wfd3.bmp	blankscreen.bmp	square.bmp
14	real_a	real_topright_same_a	2	619	23	mask.bmp	blankscreen.bmp	wfd5.bmp	blankscreen.bmp	square.bmp
14	real_a	real_topleft_diff_a	3	685	23	mask.bmp	blankscreen.bmp	wfd1.bmp	blankscreen.bmp	square.bmp
14	real_a	real_topleft_diff_a	4	668	18	mask.bmp	blankscreen.bmp	wmd2.bmp	blankscreen.bmp	circle.bmp
14	real_a	real_topleft_same_a	5	812	23	mask.bmp	blankscreen.bmp	wfn4.bmp	blankscreen.bmp	square.bmp
14	real_a	real_topleft_same_a	6	455	23	mask.bmp	blankscreen.bmp	wfd4.bmp	blankscreen.bmp	square.bmp
14	real_a	real_bottomleft_diff_a	7	703	18	mask.bmp	blankscreen.bmp	wfn1.bmp	blankscreen.bmp	circle.bmp
14	real_a	real_bottomleft_same_a	8	654	18	mask.bmp	blankscreen.bmp	wmd4.bmp	blankscreen.bmp	circle.bmp
14	real_a	real_topright_diff_a	9	686	18	mask.bmp	blankscreen.bmp	wmn1.bmp	blankscreen.bmp	circle.bmp
14	real_a	real_bottomleft_diff_a	10	397	23	mask.bmp	blankscreen.bmp	wmn2.bmp	blankscreen.bmp	square.bmp
14	real_a	real_topright_same_a	11	456	23	mask.bmp	blankscreen.bmp	wmn4.bmp	blankscreen.bmp	square.bmp
14	real_a	real_bottomleft_same_a	12	544	18	mask.bmp	blankscreen.bmp	wfn5.bmp	blankscreen.bmp	circle.bmp
14	real_a	real_bottomright_diff_a	13	2294	18	mask.bmp	blankscreen.bmp	wmd1.bmp	blankscreen.bmp	circle.bmp
14	real_a	real_bottomright_diff_a	14	677	18	mask.bmp	blankscreen.bmp	wfn2.bmp	blankscreen.bmp	circle.bmp
14	real_a	real_topleft_diff_a	15	645	18	mask.bmp	blankscreen.bmp	wfn3.bmp	blankscreen.bmp	circle.bmp
14	real_a	real_bottomright_same_a	16	405	18	mask.bmp	blankscreen.bmp	wmn5.bmp	blankscreen.bmp	circle.bmp
14	real_a	real_bottomright_same_a	17	608	23	mask.bmp	blankscreen.bmp	wmd5.bmp	blankscreen.bmp	square.bmp
14	real_a	real_bottomright_diff_a	18	658	23	mask.bmp	blankscreen.bmp	wmn3.bmp	blankscreen.bmp	square.bmp
14	real_a	real_topright_diff_a	19	1027	23	mask.bmp	blankscreen.bmp	wmd3.bmp	blankscreen.bmp	square.bmp
14	real_a	real_topright_diff_a	20	693	23	mask.bmp	blankscreen.bmp	wfd2.bmp	blankscreen.bmp	square.bmp
14	real_b	real_bottomright_diff_b	1	1198	23	mask.bmp	blankscreen.bmp	wfd6.bmp	blankscreen.bmp	square.bmp
14	real_b	real_topleft_diff_b	2	473	18	mask.bmp	blankscreen.bmp	wmn6.bmp	blankscreen.bmp	circle.bmp
14	real_b	real_bottomleft_diff_b	3	465	18	mask.bmp	blankscreen.bmp	wfn7.bmp	blankscreen.bmp	circle.bmp
14	real_b	real_bottomleft_same_b	4	793	18	mask.bmp	blankscreen.bmp	wmd10.bmp	blankscreen.bmp	circle.bmp
14	real_b	real_topleft_same_b	5	564	18	mask.bmp	blankscreen.bmp	wmn9.bmp	blankscreen.bmp	circle.bmp
14	real_b	real_topright_diff_b	6	968	23	mask.bmp	blankscreen.bmp	wfn6.bmp	blankscreen.bmp	square.bmp
14	real_b	real_bottomright_same_b	7	508	18	mask.bmp	blankscreen.bmp	wfn10.bmp	blankscreen.bmp	circle.bmp
14	real_b	real_bottomleft_same_b	8	1634	23	mask.bmp	blankscreen.bmp	wfd9.bmp	blankscreen.bmp	square.bmp
14	real_b	real_bottomright_diff_b	9	1115	23	mask.bmp	blankscreen.bmp	wmd7.bmp	blankscreen.bmp	square.bmp
14	real_b	real_bottomright_same_b	10	585	18	mask.bmp	blankscreen.bmp	wfd10.bmp	blankscreen.bmp	circle.bmp
14	real_b	real_topright_diff_b	11	636	18	mask.bmp	blankscreen.bmp	wfd8.bmp	blankscreen.bmp	square.bmp
14	real_b	real_bottomleft_diff_b	12	622	18	mask.bmp	blankscreen.bmp	wmn8.bmp	blankscreen.bmp	circle.bmp
14	real_b	real_topleft_diff_b	13	1616	23	mask.bmp	blankscreen.bmp	wmd8.bmp	blankscreen.bmp	square.bmp
14	real_b	real_topright_diff_b	14	617	23	mask.bmp	blankscreen.bmp	wmn7.bmp	blankscreen.bmp	square.bmp
14	real_b	real_topleft_same_b	15	747	18	mask.bmp	blankscreen.bmp	wmd9.bmp	blankscreen.bmp	circle.bmp
14	real_b	real_bottomright_diff_b	16	664	18	mask.bmp	blankscreen.bmp	wfn8.bmp	blankscreen.bmp	circle.bmp
14	real_b	real_topright_same_b	17	632	18	mask.bmp	blankscreen.bmp	wfn9.bmp	blankscreen.bmp	circle.bmp
14	real_b	real_bottomleft_diff_b	18	745	23	mask.bmp	blankscreen.bmp	wmd6.bmp	blankscreen.bmp	square.bmp
14	real_b	real_topright_same_b	19	614	23	mask.bmp	blankscreen.bmp	wmn10.bmp	blankscreen.bmp	square.bmp
14	real_b	real_topleft_diff_b	20	696	18	mask.bmp	blankscreen.bmp	wfd7.bmp	blankscreen.bmp	circle.bmp
14	real_c	real_topright_diff_c	1	675	18	mask.bmp	blankscreen.bmp	wmn3.bmp	blankscreen.bmp	circle.bmp
14	real_c	real_topright_diff_c	2	371	18	mask.bmp	blankscreen.bmp	wmd4.bmp	blankscreen.bmp	circle.bmp
14	real_c	real_topright_diff_c	3	431	23	mask.bmp	blankscreen.bmp	wfn5.bmp	blankscreen.bmp	square.bmp
14	real_c	real_topleft_diff_c	4	424	23	mask.bmp	blankscreen.bmp	wfd3.bmp	blankscreen.bmp	square.bmp
14	real_c	real_topleft_diff_c	5	530	18	mask.bmp	blankscreen.bmp	wfn4.bmp	blankscreen.bmp	circle.bmp
14	real_c	real_bottomright_same_c	6	1128	18	mask.bmp	blankscreen.bmp	wmn2.bmp	blankscreen.bmp	circle.bmp
14	real_c	real_topright_same_c	7	390	23	mask.bmp	blankscreen.bmp	wfn2.bmp	blankscreen.bmp	square.bmp
14	real_c	real_topleft_same_c	8	449	23	mask.bmp	blankscreen.bmp	wfd1.bmp	blankscreen.bmp	square.bmp
14	real_c	real_topright_same_c	9	361	18	mask.bmp	blankscreen.bmp	wmd1.bmp	blankscreen.bmp	circle.bmp
14	real_c	real_bottomright_diff_c	10	566	23	mask.bmp	blankscreen.bmp	wmd3.bmp	blankscreen.bmp	square.bmp
14	real_c	real_bottomleft_diff_c	11	410	23	mask.bmp	blankscreen.bmp	wmd5.bmp	blankscreen.bmp	square.bmp
14	real_c	real_bottomleft_diff_c	12	452	18	mask.bmp	blankscreen.bmp	wfn3.bmp	blankscreen.bmp	circle.bmp
14	real_c	real_bottomleft_diff_c	13	413	23	mask.bmp	blankscreen.bmp	wfd4.bmp	blankscreen.bmp	square.bmp
14	real_c	real_bottomright_same_c	14	359	18	mask.bmp	blankscreen.bmp	wmd2.bmp	blankscreen.bmp	circle.bmp
14	real_c	real_bottomright_diff_c	15	388	18	mask.bmp	blankscreen.bmp	wmn4.bmp	blankscreen.bmp	circle.bmp
14	real_c	real_bottomleft_same_c	16	351	23	mask.bmp	blankscreen.bmp	wmn1.bmp	blankscreen.bmp	square.bmp
14	real_c	real_topleft_same_c	17	508	23	mask.bmp	blankscreen.bmp	wfn1.bmp	blankscreen.bmp	square.bmp
14	real_c	real_bottomleft_same_c	18	370	23	mask.bmp	blankscreen.bmp	wfd2.bmp	blankscreen.bmp	square.bmp
14	real_c	real_bottomright_diff_c	19	366	18	mask.bmp	blankscreen.bmp	wfd5.bmp	blankscreen.bmp	circle.bmp
14	real_c	real_topleft_diff_c	20	490	23	mask.bmp	blankscreen.bmp	wmn5.bmp	blankscreen.bmp	square.bmp
14	real_d	real_bottomright_diff_d	1	2457	18	mask.bmp	blankscreen.bmp	wfd8.bmp	blankscreen.bmp	circle.bmp
14	real_d	real_bottomleft_diff_d	2	705	18	mask.bmp	blankscreen.bmp	wmn9.bmp	blankscreen.bmp	circle.bmp
14	real_d	real_bottomright_same_d	3	528	23	mask.bmp	blankscreen.bmp	wfn7.bmp	blankscreen.bmp	square.bmp
14	real_d	real_bottomleft_diff_d	4	1446	18	mask.bmp	blankscreen.bmp	wmd8.bmp	blankscreen.bmp	circle.bmp
14	real_d	real_topright_same_d	5	439	23	mask.bmp	blankscreen.bmp	wfd6.bmp	blankscreen.bmp	square.bmp
14	real_d	real_topleft_diff_d	6	368	23	mask.bmp	blankscreen.bmp	wmd9.bmp	blankscreen.bmp	square.bmp
14	real_d	real_bottomleft_same_d	7	396	23	mask.bmp	blankscreen.bmp	wfn6.bmp	blankscreen.bmp	square.bmp
14	real_d	real_topleft_diff_d	8	359	23	mask.bmp	blankscreen.bmp	wmn8.bmp	blankscreen.bmp	square.bmp
14	real_d	real_topright_diff_d	9	388	18	mask.bmp	blankscreen.bmp	wfd9.bmp	blankscreen.bmp	circle.bmp
14	real_d	real_bottomright_diff_d	10	511	18	mask.bmp	blankscreen.bmp	wfn9.bmp	blankscreen.bmp	circle.bmp
14	real_d	real_bottomleft_diff_d	11	837	23	mask.bmp	blankscreen.bmp	wfd10.bmp	blankscreen.bmp	square.bmp
14	real_d	real_topright_same_d	12	447	18	mask.bmp	blankscreen.bmp	wmd7.bmp	blankscreen.bmp	circle.bmp
14	real_d	real_bottomright_diff_d	13	536	18	mask.bmp	blankscreen.bmp	wmn10.bmp	blankscreen.bmp	circle.bmp
14	real_d	real_topleft_same_d	14	445	18	mask.bmp	blankscreen.bmp	wmd6.bmp	blankscreen.bmp	circle.bmp
14	real_d	real_topright_diff_d	15	694	23	mask.bmp	blankscreen.bmp	wfn8.bmp	blankscreen.bmp	square.bmp
14	real_d	real_topleft_same_d	16	1509	18	mask.bmp	blankscreen.bmp	wmn6.bmp	blankscreen.bmp	circle.bmp
14	real_d	real_topright_diff_d	17	532	18	mask.bmp	blankscreen.bmp	wmd10.bmp	blankscreen.bmp	circle.bmp
14	real_d	real_bottomleft_same_d	18	537	18	mask.bmp	blankscreen.bmp	wmn7.bmp	blankscreen.bmp	circle.bmp
14	real_d	real_bottomright_same_d	19	398	18	mask.bmp	blankscreen.bmp	wfd7.bmp	blankscreen.bmp	circle.bmp
14	real_d	real_topleft_diff_d	20	537	18	mask.bmp	blankscreen.bmp	wfn10.bmp	blankscreen.bmp	circle.bmp
18	practice	practice_bottomright_same	1	1288	23	mask.bmp	blankscreen.bmp	practice8.jpg	blankscreen.bmp	square.bmp
18	practice	practice_bottomright_diff	2	895	23	mask.bmp	blankscreen.bmp	practice12.jpg	blankscreen.bmp	square.bmp
18	practice	practice_bottomleft_same	3	438	18	mask.bmp	blankscreen.bmp	practice6.jpg	blankscreen.bmp	circle.bmp
18	practice	practice_topright_same	4	367	18	mask.bmp	blankscreen.bmp	practice4.jpg	blankscreen.bmp	circle.bmp
18	practice	practice_bottomleft_same	5	507	23	mask.bmp	blankscreen.bmp	practice5.jpg	blankscreen.bmp	square.bmp
18	practice	practice_topright_same	6	546	18	mask.bmp	blankscreen.bmp	practice3.jpg	blankscreen.bmp	circle.bmp
18	practice	practice_topleft_diff	7	631	23	mask.bmp	blankscreen.bmp	practice9.jpg	blankscreen.bmp	square.bmp
18	practice	practice_bottomright_same	8	584	23	mask.bmp	blankscreen.bmp	practice7.jpg	blankscreen.bmp	square.bmp
18	practice	practice_bottomleft_diff	9	508	18	mask.bmp	blankscreen.bmp	practice11.jpg	blankscreen.bmp	circle.bmp
18	practice	practice_topleft_same	10	402	18	mask.bmp	blankscreen.bmp	practice2.jpg	blankscreen.bmp	circle.bmp
18	practice	practice_topright_diff	11	573	23	mask.bmp	blankscreen.bmp	practice10.jpg	blankscreen.bmp	square.bmp
18	practice	practice_topleft_same	12	465	18	mask.bmp	blankscreen.bmp	practice1.jpg	blankscreen.bmp	circle.bmp
18	real_a	real_topright_diff_a	1	573	18	mask.bmp	blankscreen.bmp	wfd2.bmp	blankscreen.bmp	circle.bmp
18	real_a	real_topright_diff_a	2	641	18	mask.bmp	blankscreen.bmp	wmd3.bmp	blankscreen.bmp	circle.bmp
18	real_a	real_topleft_diff_a	3	562	23	mask.bmp	blankscreen.bmp	wmd2.bmp	blankscreen.bmp	square.bmp
18	real_a	real_topright_same_a	4	630	23	mask.bmp	blankscreen.bmp	wfd5.bmp	blankscreen.bmp	square.bmp
18	real_a	real_bottomright_diff_a	5	616	23	mask.bmp	blankscreen.bmp	wmd1.bmp	blankscreen.bmp	square.bmp
18	real_a	real_topleft_same_a	6	457	18	mask.bmp	blankscreen.bmp	wfd4.bmp	blankscreen.bmp	circle.bmp
18	real_a	real_bottomleft_diff_a	7	642	18	mask.bmp	blankscreen.bmp	wfn1.bmp	blankscreen.bmp	circle.bmp
18	real_a	real_topright_diff_a	8	531	23	mask.bmp	blankscreen.bmp	wmn1.bmp	blankscreen.bmp	square.bmp
18	real_a	real_topright_same_a	9	537	23	mask.bmp	blankscreen.bmp	wmn4.bmp	blankscreen.bmp	square.bmp
18	real_a	real_bottomright_same_a	10	478	18	mask.bmp	blankscreen.bmp	wmn5.bmp	blankscreen.bmp	circle.bmp
18	real_a	real_bottomright_diff_a	11	661	18	mask.bmp	blankscreen.bmp	wmn3.bmp	blankscreen.bmp	circle.bmp
18	real_a	real_topleft_same_a	12	694	23	mask.bmp	blankscreen.bmp	wfn4.bmp	blankscreen.bmp	square.bmp
18	real_a	real_bottomright_diff_a	13	485	18	mask.bmp	blankscreen.bmp	wfn2.bmp	blankscreen.bmp	circle.bmp
18	real_a	real_bottomleft_diff_a	14	541	18	mask.bmp	blankscreen.bmp	wmn2.bmp	blankscreen.bmp	circle.bmp
18	real_a	real_topleft_diff_a	15	610	23	mask.bmp	blankscreen.bmp	wfn3.bmp	blankscreen.bmp	square.bmp
18	real_a	real_bottomright_same_a	16	788	23	mask.bmp	blankscreen.bmp	wmd5.bmp	blankscreen.bmp	square.bmp
18	real_a	real_bottomleft_same_a	17	560	23	mask.bmp	blankscreen.bmp	wfn5.bmp	blankscreen.bmp	square.bmp
18	real_a	real_bottomleft_diff_a	18	564	18	mask.bmp	blankscreen.bmp	wfd3.bmp	blankscreen.bmp	circle.bmp
18	real_a	real_topleft_diff_a	19	648	18	mask.bmp	blankscreen.bmp	wfd1.bmp	blankscreen.bmp	circle.bmp
18	real_a	real_bottomleft_same_a	20	729	18	mask.bmp	blankscreen.bmp	wmd4.bmp	blankscreen.bmp	circle.bmp
18	real_b	real_topleft_diff_b	1	748	23	mask.bmp	blankscreen.bmp	wmn6.bmp	blankscreen.bmp	square.bmp
18	real_b	real_bottomright_same_b	2	552	23	mask.bmp	blankscreen.bmp	wfn10.bmp	blankscreen.bmp	square.bmp
18	real_b	real_bottomleft_diff_b	3	812	18	mask.bmp	blankscreen.bmp	wmd6.bmp	blankscreen.bmp	circle.bmp
18	real_b	real_bottomright_diff_b	4	759	23	mask.bmp	blankscreen.bmp	wfd6.bmp	blankscreen.bmp	square.bmp
18	real_b	real_topright_same_b	5	611	18	mask.bmp	blankscreen.bmp	wmn10.bmp	blankscreen.bmp	circle.bmp
18	real_b	real_bottomleft_same_b	6	646	23	mask.bmp	blankscreen.bmp	wfd9.bmp	blankscreen.bmp	square.bmp
18	real_b	real_bottomright_same_b	7	519	18	mask.bmp	blankscreen.bmp	wfd10.bmp	blankscreen.bmp	circle.bmp
18	real_b	real_topleft_same_b	8	605	23	mask.bmp	blankscreen.bmp	wmd9.bmp	blankscreen.bmp	square.bmp
18	real_b	real_topleft_same_b	9	544	23	mask.bmp	blankscreen.bmp	wmn9.bmp	blankscreen.bmp	square.bmp
18	real_b	real_topleft_diff_b	10	565	23	mask.bmp	blankscreen.bmp	wfd7.bmp	blankscreen.bmp	square.bmp
18	real_b	real_bottomright_diff_b	11	585	23	mask.bmp	blankscreen.bmp	wfn8.bmp	blankscreen.bmp	square.bmp
18	real_b	real_topright_same_b	12	588	18	mask.bmp	blankscreen.bmp	wfn9.bmp	blankscreen.bmp	circle.bmp
18	real_b	real_topright_diff_b	13	815	23	mask.bmp	blankscreen.bmp	wfd8.bmp	blankscreen.bmp	square.bmp
18	real_b	real_topright_diff_b	14	553	18	mask.bmp	blankscreen.bmp	wmn7.bmp	blankscreen.bmp	circle.bmp
18	real_b	real_topleft_diff_b	15	669	18	mask.bmp	blankscreen.bmp	wmd8.bmp	blankscreen.bmp	circle.bmp
18	real_b	real_bottomleft_diff_b	16	574	23	mask.bmp	blankscreen.bmp	wfn7.bmp	blankscreen.bmp	square.bmp
18	real_b	real_topright_diff_b	17	737	18	mask.bmp	blankscreen.bmp	wfn6.bmp	blankscreen.bmp	circle.bmp
18	real_b	real_bottomleft_diff_b	18	671	23	mask.bmp	blankscreen.bmp	wmn8.bmp	blankscreen.bmp	square.bmp
18	real_b	real_bottomright_diff_b	19	686	18	mask.bmp	blankscreen.bmp	wmd7.bmp	blankscreen.bmp	circle.bmp
18	real_b	real_bottomleft_same_b	20	718	23	mask.bmp	blankscreen.bmp	wmd10.bmp	blankscreen.bmp	square.bmp
18	real_c	real_bottomleft_diff_c	1	639	18	mask.bmp	blankscreen.bmp	wfd4.bmp	blankscreen.bmp	circle.bmp
18	real_c	real_topright_diff_c	2	625	23	mask.bmp	blankscreen.bmp	wmd4.bmp	blankscreen.bmp	square.bmp
18	real_c	real_bottomleft_same_c	3	546	18	mask.bmp	blankscreen.bmp	wfd2.bmp	blankscreen.bmp	circle.bmp
18	real_c	real_topleft_diff_c	4	583	18	mask.bmp	blankscreen.bmp	wfd3.bmp	blankscreen.bmp	circle.bmp
18	real_c	real_topleft_same_c	5	634	23	mask.bmp	blankscreen.bmp	wfn1.bmp	blankscreen.bmp	square.bmp
18	real_c	real_topright_diff_c	6	780	23	mask.bmp	blankscreen.bmp	wmn3.bmp	blankscreen.bmp	square.bmp
18	real_c	real_topleft_diff_c	7	615	23	mask.bmp	blankscreen.bmp	wfn4.bmp	blankscreen.bmp	square.bmp
18	real_c	real_bottomleft_same_c	8	521	18	mask.bmp	blankscreen.bmp	wmn1.bmp	blankscreen.bmp	circle.bmp
18	real_c	real_topleft_diff_c	9	671	18	mask.bmp	blankscreen.bmp	wmn5.bmp	blankscreen.bmp	circle.bmp
18	real_c	real_topright_same_c	10	575	18	mask.bmp	blankscreen.bmp	wmd1.bmp	blankscreen.bmp	circle.bmp
18	real_c	real_bottomleft_diff_c	11	659	18	mask.bmp	blankscreen.bmp	wfn3.bmp	blankscreen.bmp	circle.bmp
18	real_c	real_bottomleft_diff_c	12	579	18	mask.bmp	blankscreen.bmp	wmd5.bmp	blankscreen.bmp	circle.bmp
18	real_c	real_bottomright_diff_c	13	631	18	mask.bmp	blankscreen.bmp	wmn4.bmp	blankscreen.bmp	circle.bmp
18	real_c	real_topright_diff_c	14	584	23	mask.bmp	blankscreen.bmp	wfn5.bmp	blankscreen.bmp	square.bmp
18	real_c	real_topleft_same_c	15	668	23	mask.bmp	blankscreen.bmp	wfd1.bmp	blankscreen.bmp	square.bmp
18	real_c	real_bottomright_diff_c	16	731	23	mask.bmp	blankscreen.bmp	wfd5.bmp	blankscreen.bmp	square.bmp
18	real_c	real_bottomright_diff_c	17	601	23	mask.bmp	blankscreen.bmp	wmd3.bmp	blankscreen.bmp	square.bmp
18	real_c	real_bottomright_same_c	18	571	23	mask.bmp	blankscreen.bmp	wmd2.bmp	blankscreen.bmp	square.bmp
18	real_c	real_topright_same_c	19	671	23	mask.bmp	blankscreen.bmp	wfn2.bmp	blankscreen.bmp	square.bmp
18	real_c	real_bottomright_same_c	20	591	18	mask.bmp	blankscreen.bmp	wmn2.bmp	blankscreen.bmp	circle.bmp
18	real_d	real_bottomleft_same_d	1	753	18	mask.bmp	blankscreen.bmp	wfn6.bmp	blankscreen.bmp	circle.bmp
18	real_d	real_topleft_diff_d	2	654	18	mask.bmp	blankscreen.bmp	wmn8.bmp	blankscreen.bmp	circle.bmp
18	real_d	real_bottomleft_diff_d	3	543	18	mask.bmp	blankscreen.bmp	wfd10.bmp	blankscreen.bmp	circle.bmp
18	real_d	real_topright_diff_d	4	660	23	mask.bmp	blankscreen.bmp	wfn8.bmp	blankscreen.bmp	square.bmp
18	real_d	real_topleft_diff_d	5	580	18	mask.bmp	blankscreen.bmp	wfn10.bmp	blankscreen.bmp	circle.bmp
18	real_d	real_topleft_same_d	6	728	23	mask.bmp	blankscreen.bmp	wmd6.bmp	blankscreen.bmp	square.bmp
18	real_d	real_bottomright_same_d	7	645	18	mask.bmp	blankscreen.bmp	wfd7.bmp	blankscreen.bmp	circle.bmp
18	real_d	real_bottomright_diff_d	8	631	23	mask.bmp	blankscreen.bmp	wfn9.bmp	blankscreen.bmp	square.bmp
18	real_d	real_topright_same_d	9	648	23	mask.bmp	blankscreen.bmp	wfd6.bmp	blankscreen.bmp	square.bmp
18	real_d	real_bottomleft_same_d	10	664	23	mask.bmp	blankscreen.bmp	wmn7.bmp	blankscreen.bmp	square.bmp
18	real_d	real_bottomleft_diff_d	11	568	23	mask.bmp	blankscreen.bmp	wmd8.bmp	blankscreen.bmp	square.bmp
18	real_d	real_bottomright_diff_d	12	588	18	mask.bmp	blankscreen.bmp	wmn10.bmp	blankscreen.bmp	circle.bmp
18	real_d	real_topleft_same_d	13	559	23	mask.bmp	blankscreen.bmp	wmn6.bmp	blankscreen.bmp	square.bmp
18	real_d	real_bottomright_diff_d	14	612	23	mask.bmp	blankscreen.bmp	wfd8.bmp	blankscreen.bmp	square.bmp
18	real_d	real_topright_same_d	15	534	18	mask.bmp	blankscreen.bmp	wmd7.bmp	blankscreen.bmp	circle.bmp
18	real_d	real_topleft_diff_d	16	700	23	mask.bmp	blankscreen.bmp	wmd9.bmp	blankscreen.bmp	square.bmp
18	real_d	real_topright_diff_d	17	714	18	mask.bmp	blankscreen.bmp	wfd9.bmp	blankscreen.bmp	circle.bmp
18	real_d	real_topright_diff_d	18	600	18	mask.bmp	blankscreen.bmp	wmd10.bmp	blankscreen.bmp	circle.bmp
18	real_d	real_bottomleft_diff_d	19	715	23	mask.bmp	blankscreen.bmp	wmn9.bmp	blankscreen.bmp	square.bmp
18	real_d	real_bottomright_same_d	20	632	18	mask.bmp	blankscreen.bmp	wfn7.bmp	blankscreen.bmp	circle.bmp
22	practice	practice_topright_diff	1	640	18	mask.bmp	blankscreen.bmp	practice10.jpg	blankscreen.bmp	circle.bmp
22	practice	practice_topright_same	2	657	23	mask.bmp	blankscreen.bmp	practice4.jpg	blankscreen.bmp	square.bmp
22	practice	practice_topleft_diff	3	1042	23	mask.bmp	blankscreen.bmp	practice9.jpg	blankscreen.bmp	square.bmp
22	practice	practice_bottomleft_diff	4	691	18	mask.bmp	blankscreen.bmp	practice11.jpg	blankscreen.bmp	circle.bmp
22	practice	practice_bottomleft_same	5	738	18	mask.bmp	blankscreen.bmp	practice5.jpg	blankscreen.bmp	circle.bmp
22	practice	practice_bottomright_same	6	751	23	mask.bmp	blankscreen.bmp	practice8.jpg	blankscreen.bmp	square.bmp
22	practice	practice_topright_same	7	716	23	mask.bmp	blankscreen.bmp	practice3.jpg	blankscreen.bmp	square.bmp
22	practice	practice_bottomright_diff	8	857	23	mask.bmp	blankscreen.bmp	practice12.jpg	blankscreen.bmp	square.bmp
22	practice	practice_topleft_same	9	770	23	mask.bmp	blankscreen.bmp	practice2.jpg	blankscreen.bmp	square.bmp
22	practice	practice_topleft_same	10	1070	23	mask.bmp	blankscreen.bmp	practice1.jpg	blankscreen.bmp	square.bmp
22	practice	practice_bottomleft_same	11	766	23	mask.bmp	blankscreen.bmp	practice6.jpg	blankscreen.bmp	square.bmp
22	practice	practice_bottomright_same	12	810	18	mask.bmp	blankscreen.bmp	practice7.jpg	blankscreen.bmp	circle.bmp
22	real_a	real_topright_diff_a	1	748	23	mask.bmp	blankscreen.bmp	wfd2.bmp	blankscreen.bmp	square.bmp
22	real_a	real_topleft_diff_a	2	808	23	mask.bmp	blankscreen.bmp	wmd2.bmp	blankscreen.bmp	square.bmp
22	real_a	real_bottomright_diff_a	3	771	18	mask.bmp	blankscreen.bmp	wmd1.bmp	blankscreen.bmp	circle.bmp
22	real_a	real_topleft_diff_a	4	927	23	mask.bmp	blankscreen.bmp	wfn3.bmp	blankscreen.bmp	square.bmp
22	real_a	real_bottomleft_same_a	5	613	23	mask.bmp	blankscreen.bmp	wfn5.bmp	blankscreen.bmp	square.bmp
22	real_a	real_topright_diff_a	6	663	23	mask.bmp	blankscreen.bmp	wmn1.bmp	blankscreen.bmp	square.bmp
22	real_a	real_bottomleft_same_a	7	648	18	mask.bmp	blankscreen.bmp	wmd4.bmp	blankscreen.bmp	circle.bmp
22	real_a	real_topleft_same_a	8	712	18	mask.bmp	blankscreen.bmp	wfn4.bmp	blankscreen.bmp	circle.bmp
22	real_a	real_bottomright_diff_a	9	887	18	mask.bmp	blankscreen.bmp	wmn3.bmp	blankscreen.bmp	circle.bmp
22	real_a	real_topleft_diff_a	10	686	18	mask.bmp	blankscreen.bmp	wfd1.bmp	blankscreen.bmp	circle.bmp
22	real_a	real_bottomleft_diff_a	11	973	23	mask.bmp	blankscreen.bmp	wfd3.bmp	blankscreen.bmp	square.bmp
22	real_a	real_bottomright_same_a	12	673	18	mask.bmp	blankscreen.bmp	wmn5.bmp	blankscreen.bmp	circle.bmp
22	real_a	real_bottomleft_diff_a	13	689	23	mask.bmp	blankscreen.bmp	wfn1.bmp	blankscreen.bmp	circle.bmp
22	real_a	real_topright_same_a	14	784	18	mask.bmp	blankscreen.bmp	wfd5.bmp	blankscreen.bmp	circle.bmp
22	real_a	real_bottomright_same_a	15	603	18	mask.bmp	blankscreen.bmp	wmd5.bmp	blankscreen.bmp	circle.bmp
22	real_a	real_topright_diff_a	16	606	18	mask.bmp	blankscreen.bmp	wmd3.bmp	blankscreen.bmp	circle.bmp
22	real_a	real_topright_same_a	17	608	18	mask.bmp	blankscreen.bmp	wmn4.bmp	blankscreen.bmp	circle.bmp
22	real_a	real_bottomleft_diff_a	18	643	18	mask.bmp	blankscreen.bmp	wmn2.bmp	blankscreen.bmp	circle.bmp
22	real_a	real_bottomright_diff_a	19	468	18	mask.bmp	blankscreen.bmp	wfn2.bmp	blankscreen.bmp	circle.bmp
22	real_a	real_topleft_same_a	20	572	18	mask.bmp	blankscreen.bmp	wfd4.bmp	blankscreen.bmp	circle.bmp
22	real_b	real_topright_same_b	1	616	23	mask.bmp	blankscreen.bmp	wfn9.bmp	blankscreen.bmp	square.bmp
22	real_b	real_topleft_diff_b	2	554	18	mask.bmp	blankscreen.bmp	wmn6.bmp	blankscreen.bmp	circle.bmp
22	real_b	real_bottomleft_diff_b	3	623	23	mask.bmp	blankscreen.bmp	wmd6.bmp	blankscreen.bmp	square.bmp
22	real_b	real_bottomright_same_b	4	433	18	mask.bmp	blankscreen.bmp	wfn10.bmp	blankscreen.bmp	circle.bmp
22	real_b	real_topright_same_b	5	1002	23	mask.bmp	blankscreen.bmp	wmn10.bmp	blankscreen.bmp	square.bmp
22	real_b	real_bottomleft_diff_b	6	492	18	mask.bmp	blankscreen.bmp	wfn7.bmp	blankscreen.bmp	circle.bmp
22	real_b	real_bottomright_diff_b	7	500	23	mask.bmp	blankscreen.bmp	wfn8.bmp	blankscreen.bmp	square.bmp
22	real_b	real_bottomleft_same_b	8	490	23	mask.bmp	blankscreen.bmp	wfd9.bmp	blankscreen.bmp	square.bmp
22	real_b	real_topleft_same_b	9	513	18	mask.bmp	blankscreen.bmp	wmd9.bmp	blankscreen.bmp	circle.bmp
22	real_b	real_bottomright_diff_b	10	632	18	mask.bmp	blankscreen.bmp	wfd6.bmp	blankscreen.bmp	circle.bmp
22	real_b	real_bottomright_diff_b	11	569	23	mask.bmp	blankscreen.bmp	wmd7.bmp	blankscreen.bmp	square.bmp
22	real_b	real_bottomleft_diff_b	12	701	23	mask.bmp	blankscreen.bmp	wmn8.bmp	blankscreen.bmp	square.bmp
22	real_b	real_topleft_diff_b	13	684	18	mask.bmp	blankscreen.bmp	wmd8.bmp	blankscreen.bmp	circle.bmp
22	real_b	real_topright_diff_b	14	683	23	mask.bmp	blankscreen.bmp	wmn7.bmp	blankscreen.bmp	square.bmp
22	real_b	real_topleft_diff_b	15	826	18	mask.bmp	blankscreen.bmp	wfd7.bmp	blankscreen.bmp	circle.bmp
22	real_b	real_topleft_same_b	16	548	18	mask.bmp	blankscreen.bmp	wmn9.bmp	blankscreen.bmp	circle.bmp
22	real_b	real_topright_diff_b	17	552	23	mask.bmp	blankscreen.bmp	wfd8.bmp	blankscreen.bmp	square.bmp
22	real_b	real_topright_diff_b	18	589	18	mask.bmp	blankscreen.bmp	wfn6.bmp	blankscreen.bmp	circle.bmp
22	real_b	real_bottomright_same_b	19	432	23	mask.bmp	blankscreen.bmp	wfd10.bmp	blankscreen.bmp	square.bmp
22	real_b	real_bottomleft_same_b	20	521	23	mask.bmp	blankscreen.bmp	wmd10.bmp	blankscreen.bmp	square.bmp
22	real_c	real_bottomleft_same_c	1	424	23	mask.bmp	blankscreen.bmp	wfd2.bmp	blankscreen.bmp	square.bmp
22	real_c	real_topright_diff_c	2	530	23	mask.bmp	blankscreen.bmp	wfn5.bmp	blankscreen.bmp	square.bmp
22	real_c	real_topright_same_c	3	567	18	mask.bmp	blankscreen.bmp	wfn2.bmp	blankscreen.bmp	circle.bmp
22	real_c	real_bottomright_same_c	4	427	18	mask.bmp	blankscreen.bmp	wmd2.bmp	blankscreen.bmp	circle.bmp
22	real_c	real_topleft_same_c	5	373	23	mask.bmp	blankscreen.bmp	wfn1.bmp	blankscreen.bmp	square.bmp
22	real_c	real_topleft_diff_c	6	625	18	mask.bmp	blankscreen.bmp	wfd3.bmp	blankscreen.bmp	circle.bmp
22	real_c	real_bottomleft_same_c	7	531	18	mask.bmp	blankscreen.bmp	wmn1.bmp	blankscreen.bmp	circle.bmp
22	real_c	real_topright_diff_c	8	552	23	mask.bmp	blankscreen.bmp	wmn3.bmp	blankscreen.bmp	square.bmp
22	real_c	real_topleft_diff_c	9	524	23	mask.bmp	blankscreen.bmp	wmn5.bmp	blankscreen.bmp	square.bmp
22	real_c	real_bottomleft_diff_c	10	482	23	mask.bmp	blankscreen.bmp	wmd5.bmp	blankscreen.bmp	square.bmp
22	real_c	real_topleft_diff_c	11	489	23	mask.bmp	blankscreen.bmp	wfn4.bmp	blankscreen.bmp	square.bmp
22	real_c	real_bottomright_diff_c	12	497	23	mask.bmp	blankscreen.bmp	wmn4.bmp	blankscreen.bmp	square.bmp
22	real_c	real_bottomleft_diff_c	13	471	23	mask.bmp	blankscreen.bmp	wfn3.bmp	blankscreen.bmp	square.bmp
22	real_c	real_topright_diff_c	14	463	23	mask.bmp	blankscreen.bmp	wmd4.bmp	blankscreen.bmp	square.bmp
22	real_c	real_topleft_same_c	15	504	23	mask.bmp	blankscreen.bmp	wfd1.bmp	blankscreen.bmp	square.bmp
22	real_c	real_bottomright_diff_c	16	798	18	mask.bmp	blankscreen.bmp	wfd5.bmp	blankscreen.bmp	circle.bmp
22	real_c	real_bottomright_diff_c	17	537	23	mask.bmp	blankscreen.bmp	wmd3.bmp	blankscreen.bmp	square.bmp
22	real_c	real_topright_same_c	18	526	18	mask.bmp	blankscreen.bmp	wmd1.bmp	blankscreen.bmp	circle.bmp
22	real_c	real_bottomleft_diff_c	19	564	18	mask.bmp	blankscreen.bmp	wfd4.bmp	blankscreen.bmp	circle.bmp
22	real_c	real_bottomright_same_c	20	1064	18	mask.bmp	blankscreen.bmp	wmn2.bmp	blankscreen.bmp	circle.bmp
22	real_d	real_topleft_diff_d	1	501	18	mask.bmp	blankscreen.bmp	wfn10.bmp	blankscreen.bmp	circle.bmp
22	real_d	real_bottomright_diff_d	2	491	23	mask.bmp	blankscreen.bmp	wfn9.bmp	blankscreen.bmp	square.bmp
22	real_d	real_topright_diff_d	3	578	23	mask.bmp	blankscreen.bmp	wfn8.bmp	blankscreen.bmp	square.bmp
22	real_d	real_topright_diff_d	4	662	23	mask.bmp	blankscreen.bmp	wfd9.bmp	blankscreen.bmp	square.bmp
22	real_d	real_topleft_same_d	5	487	18	mask.bmp	blankscreen.bmp	wmd6.bmp	blankscreen.bmp	circle.bmp
22	real_d	real_bottomright_diff_d	6	478	18	mask.bmp	blankscreen.bmp	wfd8.bmp	blankscreen.bmp	circle.bmp
22	real_d	real_topleft_diff_d	7	566	18	mask.bmp	blankscreen.bmp	wmd9.bmp	blankscreen.bmp	circle.bmp
22	real_d	real_bottomright_same_d	8	538	18	mask.bmp	blankscreen.bmp	wfn7.bmp	blankscreen.bmp	circle.bmp
22	real_d	real_topright_same_d	9	463	18	mask.bmp	blankscreen.bmp	wfd6.bmp	blankscreen.bmp	circle.bmp
22	real_d	real_bottomleft_same_d	10	456	23	mask.bmp	blankscreen.bmp	wfn6.bmp	blankscreen.bmp	square.bmp
22	real_d	real_bottomleft_diff_d	11	576	18	mask.bmp	blankscreen.bmp	wmn9.bmp	blankscreen.bmp	circle.bmp
22	real_d	real_bottomright_same_d	12	452	18	mask.bmp	blankscreen.bmp	wfd7.bmp	blankscreen.bmp	circle.bmp
22	real_d	real_bottomleft_diff_d	13	605	23	mask.bmp	blankscreen.bmp	wfd10.bmp	blankscreen.bmp	square.bmp
22	real_d	real_topright_same_d	14	447	18	mask.bmp	blankscreen.bmp	wmd7.bmp	blankscreen.bmp	circle.bmp
22	real_d	real_bottomleft_diff_d	15	424	23	mask.bmp	blankscreen.bmp	wmd8.bmp	blankscreen.bmp	square.bmp
22	real_d	real_topleft_diff_d	16	562	23	mask.bmp	blankscreen.bmp	wmn8.bmp	blankscreen.bmp	square.bmp
22	real_d	real_topleft_same_d	17	535	23	mask.bmp	blankscreen.bmp	wmn6.bmp	blankscreen.bmp	square.bmp
22	real_d	real_topright_diff_d	18	540	18	mask.bmp	blankscreen.bmp	wmd10.bmp	blankscreen.bmp	circle.bmp
22	real_d	real_bottomright_diff_d	19	449	18	mask.bmp	blankscreen.bmp	wmn10.bmp	blankscreen.bmp	circle.bmp
22	real_d	real_bottomleft_same_d	20	522	18	mask.bmp	blankscreen.bmp	wmn7.bmp	blankscreen.bmp	circle.bmp
26	practice	practice_topleft_diff	1	807	18	mask.bmp	blankscreen.bmp	practice9.jpg	blankscreen.bmp	square.bmp
26	practice	practice_topright_same	2	626	18	mask.bmp	blankscreen.bmp	practice3.jpg	blankscreen.bmp	square.bmp
26	practice	practice_bottomleft_same	3	564	23	mask.bmp	blankscreen.bmp	practice5.jpg	blankscreen.bmp	square.bmp
26	practice	practice_topleft_same	4	584	23	mask.bmp	blankscreen.bmp	practice1.jpg	blankscreen.bmp	square.bmp
26	practice	practice_bottomright_diff	5	459	23	mask.bmp	blankscreen.bmp	practice12.jpg	blankscreen.bmp	square.bmp
26	practice	practice_bottomleft_diff	6	531	18	mask.bmp	blankscreen.bmp	practice11.jpg	blankscreen.bmp	circle.bmp
26	practice	practice_topright_same	7	601	18	mask.bmp	blankscreen.bmp	practice4.jpg	blankscreen.bmp	circle.bmp
26	practice	practice_bottomleft_same	8	571	23	mask.bmp	blankscreen.bmp	practice6.jpg	blankscreen.bmp	square.bmp
26	practice	practice_topright_diff	9	543	18	mask.bmp	blankscreen.bmp	practice10.jpg	blankscreen.bmp	circle.bmp
26	practice	practice_topleft_same	10	596	18	mask.bmp	blankscreen.bmp	practice2.jpg	blankscreen.bmp	circle.bmp
26	practice	practice_bottomright_same	11	488	23	mask.bmp	blankscreen.bmp	practice8.jpg	blankscreen.bmp	square.bmp
26	practice	practice_bottomright_same	12	527	18	mask.bmp	blankscreen.bmp	practice7.jpg	blankscreen.bmp	circle.bmp
26	real_a	real_bottomright_diff_a	1	791	18	mask.bmp	blankscreen.bmp	wfn2.bmp	blankscreen.bmp	circle.bmp
26	real_a	real_bottomright_diff_a	2	610	23	mask.bmp	blankscreen.bmp	wmd1.bmp	blankscreen.bmp	square.bmp
26	real_a	real_bottomright_diff_a	3	564	18	mask.bmp	blankscreen.bmp	wmn3.bmp	blankscreen.bmp	circle.bmp
26	real_a	real_bottomleft_same_a	4	744	18	mask.bmp	blankscreen.bmp	wfn5.bmp	blankscreen.bmp	circle.bmp
26	real_a	real_bottomright_same_a	5	582	18	mask.bmp	blankscreen.bmp	wmn5.bmp	blankscreen.bmp	circle.bmp
26	real_a	real_topleft_diff_a	6	633	18	mask.bmp	blankscreen.bmp	wmd2.bmp	blankscreen.bmp	circle.bmp
26	real_a	real_bottomleft_diff_a	7	554	18	mask.bmp	blankscreen.bmp	wfn1.bmp	blankscreen.bmp	circle.bmp
26	real_a	real_bottomleft_diff_a	8	623	23	mask.bmp	blankscreen.bmp	wfd3.bmp	blankscreen.bmp	square.bmp
26	real_a	real_topleft_same_a	9	561	18	mask.bmp	blankscreen.bmp	wfd4.bmp	blankscreen.bmp	circle.bmp
26	real_a	real_topright_same_a	10	789	18	mask.bmp	blankscreen.bmp	wfd5.bmp	blankscreen.bmp	circle.bmp
26	real_a	real_topright_diff_a	11	640	18	mask.bmp	blankscreen.bmp	wmd3.bmp	blankscreen.bmp	circle.bmp
26	real_a	real_bottomleft_same_a	12	498	18	mask.bmp	blankscreen.bmp	wmd4.bmp	blankscreen.bmp	circle.bmp
26	real_a	real_topleft_diff_a	13	472	18	mask.bmp	blankscreen.bmp	wfd1.bmp	blankscreen.bmp	circle.bmp
26	real_a	real_topright_diff_a	14	640	18	mask.bmp	blankscreen.bmp	wfd2.bmp	blankscreen.bmp	circle.bmp
26	real_a	real_topleft_same_a	15	801	23	mask.bmp	blankscreen.bmp	wfn4.bmp	blankscreen.bmp	square.bmp
26	real_a	real_topright_same_a	16	588	18	mask.bmp	blankscreen.bmp	wmn4.bmp	blankscreen.bmp	circle.bmp
26	real_a	real_topright_diff_a	17	751	23	mask.bmp	blankscreen.bmp	wmn1.bmp	blankscreen.bmp	square.bmp
26	real_a	real_bottomleft_diff_a	18	459	18	mask.bmp	blankscreen.bmp	wmn2.bmp	blankscreen.bmp	circle.bmp
26	real_a	real_bottomright_same_a	19	532	23	mask.bmp	blankscreen.bmp	wmd5.bmp	blankscreen.bmp	square.bmp
26	real_a	real_topleft_diff_a	20	473	18	mask.bmp	blankscreen.bmp	wfn3.bmp	blankscreen.bmp	circle.bmp
26	real_b	real_topright_diff_b	1	406	18	mask.bmp	blankscreen.bmp	wfd8.bmp	blankscreen.bmp	circle.bmp
26	real_b	real_bottomleft_diff_b	2	368	23	mask.bmp	blankscreen.bmp	wfn7.bmp	blankscreen.bmp	square.bmp
26	real_b	real_topleft_diff_b	3	524	23	mask.bmp	blankscreen.bmp	wmd8.bmp	blankscreen.bmp	square.bmp
26	real_b	real_bottomright_diff_b	4	562	23	mask.bmp	blankscreen.bmp	wfd6.bmp	blankscreen.bmp	square.bmp
26	real_b	real_bottomleft_diff_b	5	502	18	mask.bmp	blankscreen.bmp	wmd6.bmp	blankscreen.bmp	circle.bmp
26	real_b	real_topleft_same_b	6	445	23	mask.bmp	blankscreen.bmp	wmn9.bmp	blankscreen.bmp	square.bmp
26	real_b	real_topright_diff_b	7	694	23	mask.bmp	blankscreen.bmp	wfn6.bmp	blankscreen.bmp	square.bmp
26	real_b	real_bottomleft_same_b	8	565	18	mask.bmp	blankscreen.bmp	wfd9.bmp	blankscreen.bmp	circle.bmp
26	real_b	real_topright_diff_b	9	474	23	mask.bmp	blankscreen.bmp	wmn7.bmp	blankscreen.bmp	square.bmp
26	real_b	real_bottomright_same_b	10	529	23	mask.bmp	blankscreen.bmp	wfd10.bmp	blankscreen.bmp	square.bmp
26	real_b	real_bottomleft_same_b	11	535	18	mask.bmp	blankscreen.bmp	wmd10.bmp	blankscreen.bmp	square.bmp
26	real_b	real_topleft_diff_b	12	508	18	mask.bmp	blankscreen.bmp	wfd7.bmp	blankscreen.bmp	circle.bmp
26	real_b	real_topleft_same_b	13	483	23	mask.bmp	blankscreen.bmp	wmd9.bmp	blankscreen.bmp	circle.bmp
26	real_b	real_bottomright_same_b	14	570	23	mask.bmp	blankscreen.bmp	wfn10.bmp	blankscreen.bmp	square.bmp
26	real_b	real_topright_same_b	15	1054	18	mask.bmp	blankscreen.bmp	wfn9.bmp	blankscreen.bmp	circle.bmp
26	real_b	real_bottomright_diff_b	16	638	23	mask.bmp	blankscreen.bmp	wfn8.bmp	blankscreen.bmp	square.bmp
26	real_b	real_topright_same_b	17	864	18	mask.bmp	blankscreen.bmp	wmn10.bmp	blankscreen.bmp	circle.bmp
26	real_b	real_bottomleft_diff_b	18	584	18	mask.bmp	blankscreen.bmp	wmn8.bmp	blankscreen.bmp	circle.bmp
26	real_b	real_bottomright_diff_b	19	539	18	mask.bmp	blankscreen.bmp	wmd7.bmp	blankscreen.bmp	circle.bmp
26	real_b	real_topleft_diff_b	20	448	23	mask.bmp	blankscreen.bmp	wmn6.bmp	blankscreen.bmp	square.bmp
26	real_c	real_topleft_diff_c	1	1103	23	mask.bmp	blankscreen.bmp	wfd3.bmp	blankscreen.bmp	square.bmp
26	real_c	real_bottomleft_diff_c	2	542	23	mask.bmp	blankscreen.bmp	wfn3.bmp	blankscreen.bmp	square.bmp
26	real_c	real_bottomright_diff_c	3	1123	18	mask.bmp	blankscreen.bmp	wmn4.bmp	blankscreen.bmp	circle.bmp
26	real_c	real_topright_diff_c	4	1569	23	mask.bmp	blankscreen.bmp	wmd4.bmp	blankscreen.bmp	square.bmp
26	real_c	real_bottomleft_diff_c	5	732	23	mask.bmp	blankscreen.bmp	wfd4.bmp	blankscreen.bmp	square.bmp
26	real_c	real_topright_diff_c	6	490	18	mask.bmp	blankscreen.bmp	wmn3.bmp	blankscreen.bmp	circle.bmp
26	real_c	real_bottomright_same_c	7	1889	18	mask.bmp	blankscreen.bmp	wmd2.bmp	blankscreen.bmp	circle.bmp
26	real_c	real_topleft_diff_c	8	672	18	mask.bmp	blankscreen.bmp	wfn4.bmp	blankscreen.bmp	circle.bmp
26	real_c	real_topright_same_c	9	592	23	mask.bmp	blankscreen.bmp	wfn2.bmp	blankscreen.bmp	square.bmp
26	real_c	real_bottomleft_same_c	10	723	18	mask.bmp	blankscreen.bmp	wfd2.bmp	blankscreen.bmp	square.bmp
26	real_c	real_bottomright_diff_c	11	929	18	mask.bmp	blankscreen.bmp	wfd5.bmp	blankscreen.bmp	circle.bmp
26	real_c	real_bottomright_diff_c	12	663	18	mask.bmp	blankscreen.bmp	wmd3.bmp	blankscreen.bmp	circle.bmp
26	real_c	real_topright_same_c	13	856	23	mask.bmp	blankscreen.bmp	wmd1.bmp	blankscreen.bmp	square.bmp
26	real_c	real_topright_diff_c	14	640	18	mask.bmp	blankscreen.bmp	wfn5.bmp	blankscreen.bmp	circle.bmp
26	real_c	real_bottomleft_diff_c	15	577	18	mask.bmp	blankscreen.bmp	wmd5.bmp	blankscreen.bmp	circle.bmp
26	real_c	real_topleft_same_c	16	581	18	mask.bmp	blankscreen.bmp	wfn1.bmp	blankscreen.bmp	circle.bmp
26	real_c	real_bottomright_same_c	17	456	23	mask.bmp	blankscreen.bmp	wmn2.bmp	blankscreen.bmp	square.bmp
26	real_c	real_topleft_same_c	18	401	18	mask.bmp	blankscreen.bmp	wfd1.bmp	blankscreen.bmp	square.bmp
26	real_c	real_bottomleft_same_c	19	571	18	mask.bmp	blankscreen.bmp	wmn1.bmp	blankscreen.bmp	circle.bmp
26	real_c	real_topleft_diff_c	20	1215	23	mask.bmp	blankscreen.bmp	wmn5.bmp	blankscreen.bmp	square.bmp
26	real_d	real_topleft_diff_d	1	1066	23	mask.bmp	blankscreen.bmp	wfn10.bmp	blankscreen.bmp	square.bmp
26	real_d	real_topright_diff_d	2	650	23	mask.bmp	blankscreen.bmp	wfn8.bmp	blankscreen.bmp	square.bmp
26	real_d	real_bottomleft_diff_d	3	603	18	mask.bmp	blankscreen.bmp	wmd8.bmp	blankscreen.bmp	circle.bmp
26	real_d	real_topleft_same_d	4	605	18	mask.bmp	blankscreen.bmp	wmn6.bmp	blankscreen.bmp	circle.bmp
26	real_d	real_topleft_diff_d	5	576	23	mask.bmp	blankscreen.bmp	wmn8.bmp	blankscreen.bmp	square.bmp
26	real_d	real_topright_diff_d	6	724	23	mask.bmp	blankscreen.bmp	wmd10.bmp	blankscreen.bmp	square.bmp
26	real_d	real_bottomleft_diff_d	7	594	23	mask.bmp	blankscreen.bmp	wmn9.bmp	blankscreen.bmp	square.bmp
26	real_d	real_bottomright_diff_d	8	437	23	mask.bmp	blankscreen.bmp	wfd8.bmp	blankscreen.bmp	square.bmp
26	real_d	real_topright_same_d	9	558	18	mask.bmp	blankscreen.bmp	wmd7.bmp	blankscreen.bmp	circle.bmp
26	real_d	real_bottomright_same_d	10	1298	23	mask.bmp	blankscreen.bmp	wfd7.bmp	blankscreen.bmp	square.bmp
26	real_d	real_bottomleft_same_d	11	1145	18	mask.bmp	blankscreen.bmp	wmn7.bmp	blankscreen.bmp	circle.bmp
26	real_d	real_topright_diff_d	12	694	18	mask.bmp	blankscreen.bmp	wfd9.bmp	blankscreen.bmp	circle.bmp
26	real_d	real_bottomright_same_d	13	773	18	mask.bmp	blankscreen.bmp	wfn7.bmp	blankscreen.bmp	circle.bmp
26	real_d	real_bottomleft_diff_d	14	545	23	mask.bmp	blankscreen.bmp	wfd10.bmp	blankscreen.bmp	square.bmp
26	real_d	real_bottomright_diff_d	15	518	23	mask.bmp	blankscreen.bmp	wfn9.bmp	blankscreen.bmp	square.bmp
26	real_d	real_topleft_diff_d	16	428	23	mask.bmp	blankscreen.bmp	wmd9.bmp	blankscreen.bmp	square.bmp
26	real_d	real_bottomleft_same_d	17	550	23	mask.bmp	blankscreen.bmp	wfn6.bmp	blankscreen.bmp	square.bmp
26	real_d	real_topright_same_d	18	539	18	mask.bmp	blankscreen.bmp	wfd6.bmp	blankscreen.bmp	circle.bmp
26	real_d	real_topleft_same_d	19	656	23	mask.bmp	blankscreen.bmp	wmd6.bmp	blankscreen.bmp	square.bmp
26	real_d	real_bottomright_diff_d	20	657	18	mask.bmp	blankscreen.bmp	wmn10.bmp	blankscreen.bmp	circle.bmp
29	practice	practice_topright_diff	1	1334	18	mask.bmp	blankscreen.bmp	practice10.jpg	blankscreen.bmp	circle.bmp
29	practice	practice_topleft_diff	2	1067	18	mask.bmp	blankscreen.bmp	practice9.jpg	blankscreen.bmp	circle.bmp
29	practice	practice_bottomleft_same	3	891	18	mask.bmp	blankscreen.bmp	practice5.jpg	blankscreen.bmp	circle.bmp
29	practice	practice_topleft_same	4	1235	23	mask.bmp	blankscreen.bmp	practice1.jpg	blankscreen.bmp	square.bmp
29	practice	practice_bottomright_same	5	1068	18	mask.bmp	blankscreen.bmp	practice8.jpg	blankscreen.bmp	circle.bmp
29	practice	practice_bottomleft_same	6	1020	18	mask.bmp	blankscreen.bmp	practice6.jpg	blankscreen.bmp	circle.bmp
29	practice	practice_topright_same	7	1261	23	mask.bmp	blankscreen.bmp	practice4.jpg	blankscreen.bmp	square.bmp
29	practice	practice_bottomleft_diff	8	902	18	mask.bmp	blankscreen.bmp	practice11.jpg	blankscreen.bmp	circle.bmp
29	practice	practice_topright_same	9	1037	23	mask.bmp	blankscreen.bmp	practice3.jpg	blankscreen.bmp	square.bmp
29	practice	practice_bottomright_same	10	1390	18	mask.bmp	blankscreen.bmp	practice7.jpg	blankscreen.bmp	circle.bmp
29	practice	practice_topleft_same	11	1345	18	mask.bmp	blankscreen.bmp	practice2.jpg	blankscreen.bmp	circle.bmp
29	practice	practice_bottomright_diff	12	1046	23	mask.bmp	blankscreen.bmp	practice12.jpg	blankscreen.bmp	square.bmp
29	real_a	real_bottomright_diff_a	1	1309	18	mask.bmp	blankscreen.bmp	wmd1.bmp	blankscreen.bmp	circle.bmp
29	real_a	real_bottomright_diff_a	2	1412	23	mask.bmp	blankscreen.bmp	wfn2.bmp	blankscreen.bmp	square.bmp
29	real_a	real_bottomleft_same_a	3	1126	23	mask.bmp	blankscreen.bmp	wfn5.bmp	blankscreen.bmp	square.bmp
29	real_a	real_topright_diff_a	4	804	23	mask.bmp	blankscreen.bmp	wmd3.bmp	blankscreen.bmp	square.bmp
29	real_a	real_topleft_diff_a	5	767	18	mask.bmp	blankscreen.bmp	wfn3.bmp	blankscreen.bmp	circle.bmp
29	real_a	real_topright_same_a	6	842	23	mask.bmp	blankscreen.bmp	wfd5.bmp	blankscreen.bmp	square.bmp
29	real_a	real_topright_diff_a	7	708	23	mask.bmp	blankscreen.bmp	wfd2.bmp	blankscreen.bmp	square.bmp
29	real_a	real_bottomleft_same_a	8	978	18	mask.bmp	blankscreen.bmp	wmd4.bmp	blankscreen.bmp	circle.bmp
29	real_a	real_bottomleft_diff_a	9	598	18	mask.bmp	blankscreen.bmp	wfn1.bmp	blankscreen.bmp	circle.bmp
29	real_a	real_bottomleft_diff_a	10	681	23	mask.bmp	blankscreen.bmp	wmn2.bmp	blankscreen.bmp	square.bmp
29	real_a	real_bottomright_same_a	11	568	23	mask.bmp	blankscreen.bmp	wmn5.bmp	blankscreen.bmp	square.bmp
29	real_a	real_bottomleft_diff_a	12	700	23	mask.bmp	blankscreen.bmp	wfd3.bmp	blankscreen.bmp	square.bmp
29	real_a	real_bottomright_diff_a	13	1066	18	mask.bmp	blankscreen.bmp	wmn3.bmp	blankscreen.bmp	circle.bmp
29	real_a	real_topleft_diff_a	14	762	23	mask.bmp	blankscreen.bmp	wfd1.bmp	blankscreen.bmp	square.bmp
29	real_a	real_topright_same_a	15	759	18	mask.bmp	blankscreen.bmp	wmn4.bmp	blankscreen.bmp	circle.bmp
29	real_a	real_topleft_same_a	16	835	18	mask.bmp	blankscreen.bmp	wfn4.bmp	blankscreen.bmp	circle.bmp
29	real_a	real_topleft_diff_a	17	524	23	mask.bmp	blankscreen.bmp	wmd2.bmp	blankscreen.bmp	square.bmp
29	real_a	real_bottomright_same_a	18	834	18	mask.bmp	blankscreen.bmp	wmd5.bmp	blankscreen.bmp	circle.bmp
29	real_a	real_topright_diff_a	19	651	23	mask.bmp	blankscreen.bmp	wmn1.bmp	blankscreen.bmp	square.bmp
29	real_a	real_topleft_same_a	20	1484	23	mask.bmp	blankscreen.bmp	wfd4.bmp	blankscreen.bmp	square.bmp
29	real_b	real_bottomleft_same_b	1	1297	23	mask.bmp	blankscreen.bmp	wmd10.bmp	blankscreen.bmp	square.bmp
29	real_b	real_bottomright_same_b	2	1160	23	mask.bmp	blankscreen.bmp	wfd10.bmp	blankscreen.bmp	square.bmp
29	real_b	real_bottomleft_diff_b	3	1444	23	mask.bmp	blankscreen.bmp	wfn7.bmp	blankscreen.bmp	square.bmp
29	real_b	real_bottomright_diff_b	4	1701	18	mask.bmp	blankscreen.bmp	wmd7.bmp	blankscreen.bmp	circle.bmp
29	real_b	real_bottomright_diff_b	5	796	18	mask.bmp	blankscreen.bmp	wfd6.bmp	blankscreen.bmp	circle.bmp
29	real_b	real_topleft_diff_b	6	1111	18	mask.bmp	blankscreen.bmp	wfd7.bmp	blankscreen.bmp	circle.bmp
29	real_b	real_topright_same_b	7	725	18	mask.bmp	blankscreen.bmp	wfn9.bmp	blankscreen.bmp	circle.bmp
29	real_b	real_topleft_same_b	8	515	18	mask.bmp	blankscreen.bmp	wmd9.bmp	blankscreen.bmp	circle.bmp
29	real_b	real_topleft_diff_b	9	761	23	mask.bmp	blankscreen.bmp	wmn6.bmp	blankscreen.bmp	square.bmp
29	real_b	real_topleft_diff_b	10	918	18	mask.bmp	blankscreen.bmp	wmd8.bmp	blankscreen.bmp	circle.bmp
29	real_b	real_topleft_same_b	11	667	23	mask.bmp	blankscreen.bmp	wmn9.bmp	blankscreen.bmp	square.bmp
29	real_b	real_topright_diff_b	12	1179	18	mask.bmp	blankscreen.bmp	wfn6.bmp	blankscreen.bmp	circle.bmp
29	real_b	real_bottomleft_diff_b	13	1143	18	mask.bmp	blankscreen.bmp	wmd6.bmp	blankscreen.bmp	circle.bmp
29	real_b	real_topright_diff_b	14	1221	18	mask.bmp	blankscreen.bmp	wfd8.bmp	blankscreen.bmp	circle.bmp
29	real_b	real_bottomright_same_b	15	798	23	mask.bmp	blankscreen.bmp	wfn10.bmp	blankscreen.bmp	square.bmp
29	real_b	real_topright_diff_b	16	873	18	mask.bmp	blankscreen.bmp	wmn7.bmp	blankscreen.bmp	circle.bmp
29	real_b	real_topright_same_b	17	609	23	mask.bmp	blankscreen.bmp	wmn10.bmp	blankscreen.bmp	square.bmp
29	real_b	real_bottomleft_diff_b	18	1363	18	mask.bmp	blankscreen.bmp	wmn8.bmp	blankscreen.bmp	circle.bmp
29	real_b	real_bottomright_diff_b	19	968	18	mask.bmp	blankscreen.bmp	wfn8.bmp	blankscreen.bmp	circle.bmp
29	real_b	real_bottomleft_same_b	20	988	23	mask.bmp	blankscreen.bmp	wfd9.bmp	blankscreen.bmp	square.bmp
29	real_c	real_bottomright_diff_c	1	870	23	mask.bmp	blankscreen.bmp	wmn4.bmp	blankscreen.bmp	square.bmp
29	real_c	real_topright_diff_c	2	1806	23	mask.bmp	blankscreen.bmp	wmd4.bmp	blankscreen.bmp	square.bmp
29	real_c	real_topright_same_c	3	1408	18	mask.bmp	blankscreen.bmp	wfn2.bmp	blankscreen.bmp	circle.bmp
29	real_c	real_topleft_same_c	4	627	18	mask.bmp	blankscreen.bmp	wfn1.bmp	blankscreen.bmp	circle.bmp
29	real_c	real_topright_diff_c	5	565	23	mask.bmp	blankscreen.bmp	wmn3.bmp	blankscreen.bmp	square.bmp
29	real_c	real_bottomright_same_c	6	745	23	mask.bmp	blankscreen.bmp	wmn2.bmp	blankscreen.bmp	square.bmp
29	real_c	real_topleft_diff_c	7	630	18	mask.bmp	blankscreen.bmp	wfd3.bmp	blankscreen.bmp	circle.bmp
29	real_c	real_bottomright_diff_c	8	1480	23	mask.bmp	blankscreen.bmp	wfd5.bmp	blankscreen.bmp	square.bmp
29	real_c	real_bottomleft_diff_c	9	712	18	mask.bmp	blankscreen.bmp	wmd5.bmp	blankscreen.bmp	circle.bmp
29	real_c	real_topleft_same_c	10	662	18	mask.bmp	blankscreen.bmp	wfd1.bmp	blankscreen.bmp	circle.bmp
29	real_c	real_bottomright_diff_c	11	615	18	mask.bmp	blankscreen.bmp	wmd3.bmp	blankscreen.bmp	circle.bmp
29	real_c	real_bottomleft_same_c	12	601	18	mask.bmp	blankscreen.bmp	wfd2.bmp	blankscreen.bmp	circle.bmp
29	real_c	real_bottomright_same_c	13	715	18	mask.bmp	blankscreen.bmp	wmd2.bmp	blankscreen.bmp	circle.bmp
29	real_c	real_topright_diff_c	14	1241	18	mask.bmp	blankscreen.bmp	wfn5.bmp	blankscreen.bmp	circle.bmp
29	real_c	real_topleft_diff_c	15	610	18	mask.bmp	blankscreen.bmp	wfn4.bmp	blankscreen.bmp	circle.bmp
29	real_c	real_topleft_diff_c	16	581	23	mask.bmp	blankscreen.bmp	wmn5.bmp	blankscreen.bmp	square.bmp
29	real_c	real_topright_same_c	17	792	23	mask.bmp	blankscreen.bmp	wmd1.bmp	blankscreen.bmp	square.bmp
29	real_c	real_bottomleft_diff_c	18	819	18	mask.bmp	blankscreen.bmp	wfd4.bmp	blankscreen.bmp	circle.bmp
29	real_c	real_bottomleft_same_c	19	877	23	mask.bmp	blankscreen.bmp	wmn1.bmp	blankscreen.bmp	square.bmp
29	real_c	real_bottomleft_diff_c	20	869	23	mask.bmp	blankscreen.bmp	wfn3.bmp	blankscreen.bmp	square.bmp
29	real_d	real_bottomright_diff_d	1	759	23	mask.bmp	blankscreen.bmp	wfd8.bmp	blankscreen.bmp	square.bmp
29	real_d	real_topleft_diff_d	2	1476	18	mask.bmp	blankscreen.bmp	wmd9.bmp	blankscreen.bmp	circle.bmp
29	real_d	real_topright_diff_d	3	564	23	mask.bmp	blankscreen.bmp	wfn8.bmp	blankscreen.bmp	square.bmp
29	real_d	real_bottomleft_same_d	4	583	23	mask.bmp	blankscreen.bmp	wmn7.bmp	blankscreen.bmp	square.bmp
29	real_d	real_topleft_diff_d	5	651	23	mask.bmp	blankscreen.bmp	wfn10.bmp	blankscreen.bmp	square.bmp
29	real_d	real_topright_same_d	6	539	23	mask.bmp	blankscreen.bmp	wmd7.bmp	blankscreen.bmp	square.bmp
29	real_d	real_topleft_same_d	7	544	18	mask.bmp	blankscreen.bmp	wmd6.bmp	blankscreen.bmp	circle.bmp
29	real_d	real_bottomleft_same_d	8	550	23	mask.bmp	blankscreen.bmp	wfn6.bmp	blankscreen.bmp	square.bmp
29	real_d	real_bottomright_same_d	9	522	23	mask.bmp	blankscreen.bmp	wfn7.bmp	blankscreen.bmp	square.bmp
29	real_d	real_bottomleft_diff_d	10	720	23	mask.bmp	blankscreen.bmp	wmd8.bmp	blankscreen.bmp	square.bmp
29	real_d	real_topright_same_d	11	558	23	mask.bmp	blankscreen.bmp	wfd6.bmp	blankscreen.bmp	square.bmp
29	real_d	real_bottomright_same_d	12	786	18	mask.bmp	blankscreen.bmp	wfd7.bmp	blankscreen.bmp	circle.bmp
29	real_d	real_topright_diff_d	13	558	18	mask.bmp	blankscreen.bmp	wfd9.bmp	blankscreen.bmp	circle.bmp
29	real_d	real_bottomleft_diff_d	14	530	18	mask.bmp	blankscreen.bmp	wfd10.bmp	blankscreen.bmp	circle.bmp
29	real_d	real_topleft_diff_d	15	695	18	mask.bmp	blankscreen.bmp	wmn8.bmp	blankscreen.bmp	circle.bmp
29	real_d	real_bottomright_diff_d	16	503	18	mask.bmp	blankscreen.bmp	wmn10.bmp	blankscreen.bmp	circle.bmp
29	real_d	real_bottomright_diff_d	17	653	23	mask.bmp	blankscreen.bmp	wfn9.bmp	blankscreen.bmp	square.bmp
29	real_d	real_bottomleft_diff_d	18	766	23	mask.bmp	blankscreen.bmp	wmn9.bmp	blankscreen.bmp	square.bmp
29	real_d	real_topright_diff_d	19	1146	18	mask.bmp	blankscreen.bmp	wmd10.bmp	blankscreen.bmp	circle.bmp
29	real_d	real_topleft_same_d	20	1159	23	mask.bmp	blankscreen.bmp	wmn6.bmp	blankscreen.bmp	square.bmp
33	practice	practice_topleft_diff	1	879	18	mask.bmp	blankscreen.bmp	practice9.jpg	blankscreen.bmp	circle.bmp
33	practice	practice_bottomleft_same	2	470	18	mask.bmp	blankscreen.bmp	practice5.jpg	blankscreen.bmp	circle.bmp
33	practice	practice_bottomright_same	3	638	23	mask.bmp	blankscreen.bmp	practice8.jpg	blankscreen.bmp	circle.bmp
33	practice	practice_topright_diff	4	464	18	mask.bmp	blankscreen.bmp	practice10.jpg	blankscreen.bmp	circle.bmp
33	practice	practice_bottomleft_same	5	584	18	mask.bmp	blankscreen.bmp	practice6.jpg	blankscreen.bmp	circle.bmp
33	practice	practice_bottomright_diff	6	459	18	mask.bmp	blankscreen.bmp	practice12.jpg	blankscreen.bmp	circle.bmp
33	practice	practice_bottomleft_diff	7	532	18	mask.bmp	blankscreen.bmp	practice11.jpg	blankscreen.bmp	circle.bmp
33	practice	practice_bottomright_same	8	489	18	mask.bmp	blankscreen.bmp	practice7.jpg	blankscreen.bmp	circle.bmp
33	practice	practice_topleft_same	9	528	18	mask.bmp	blankscreen.bmp	practice1.jpg	blankscreen.bmp	square.bmp
33	practice	practice_topright_same	10	710	23	mask.bmp	blankscreen.bmp	practice3.jpg	blankscreen.bmp	square.bmp
33	practice	practice_topleft_same	11	309	18	mask.bmp	blankscreen.bmp	practice2.jpg	blankscreen.bmp	circle.bmp
33	practice	practice_topright_same	12	467	18	mask.bmp	blankscreen.bmp	practice4.jpg	blankscreen.bmp	circle.bmp
33	real_a	real_topleft_same_a	1	457	18	mask.bmp	blankscreen.bmp	wfn4.bmp	blankscreen.bmp	circle.bmp
33	real_a	real_topright_diff_a	2	1137	23	mask.bmp	blankscreen.bmp	wfd2.bmp	blankscreen.bmp	square.bmp
33	real_a	real_topleft_diff_a	3	526	18	mask.bmp	blankscreen.bmp	wmd2.bmp	blankscreen.bmp	square.bmp
33	real_a	real_topright_same_a	4	756	23	mask.bmp	blankscreen.bmp	wfd5.bmp	blankscreen.bmp	square.bmp
33	real_a	real_bottomright_same_a	5	913	23	mask.bmp	blankscreen.bmp	wmd5.bmp	blankscreen.bmp	square.bmp
33	real_a	real_topleft_diff_a	6	615	18	mask.bmp	blankscreen.bmp	wfn3.bmp	blankscreen.bmp	circle.bmp
33	real_a	real_bottomleft_diff_a	7	905	18	mask.bmp	blankscreen.bmp	wmn2.bmp	blankscreen.bmp	circle.bmp
33	real_a	real_bottomleft_same_a	8	912	23	mask.bmp	blankscreen.bmp	wmd4.bmp	blankscreen.bmp	square.bmp
33	real_a	real_topright_diff_a	9	614	23	mask.bmp	blankscreen.bmp	wmn1.bmp	blankscreen.bmp	square.bmp
33	real_a	real_bottomright_diff_a	10	440	23	mask.bmp	blankscreen.bmp	wmd1.bmp	blankscreen.bmp	square.bmp
33	real_a	real_bottomright_diff_a	11	577	18	mask.bmp	blankscreen.bmp	wmn3.bmp	blankscreen.bmp	circle.bmp
33	real_a	real_topleft_diff_a	12	469	23	mask.bmp	blankscreen.bmp	wfd1.bmp	blankscreen.bmp	square.bmp
33	real_a	real_topright_diff_a	13	557	18	mask.bmp	blankscreen.bmp	wmd3.bmp	blankscreen.bmp	circle.bmp
33	real_a	real_topleft_same_a	14	642	23	mask.bmp	blankscreen.bmp	wfd4.bmp	blankscreen.bmp	square.bmp
33	real_a	real_bottomright_diff_a	15	467	18	mask.bmp	blankscreen.bmp	wfn2.bmp	blankscreen.bmp	circle.bmp
33	real_a	real_bottomleft_diff_a	16	475	18	mask.bmp	blankscreen.bmp	wfd3.bmp	blankscreen.bmp	circle.bmp
33	real_a	real_bottomleft_same_a	17	627	18	mask.bmp	blankscreen.bmp	wfn5.bmp	blankscreen.bmp	circle.bmp
33	real_a	real_bottomright_same_a	18	612	23	mask.bmp	blankscreen.bmp	wmn5.bmp	blankscreen.bmp	square.bmp
33	real_a	real_topright_same_a	19	455	18	mask.bmp	blankscreen.bmp	wmn4.bmp	blankscreen.bmp	circle.bmp
33	real_a	real_bottomleft_diff_a	20	544	18	mask.bmp	blankscreen.bmp	wfn1.bmp	blankscreen.bmp	circle.bmp
33	real_b	real_topleft_same_b	1	921	18	mask.bmp	blankscreen.bmp	wmd9.bmp	blankscreen.bmp	square.bmp
33	real_b	real_bottomright_diff_b	2	527	18	mask.bmp	blankscreen.bmp	wfd6.bmp	blankscreen.bmp	circle.bmp
33	real_b	real_bottomleft_diff_b	3	405	18	mask.bmp	blankscreen.bmp	wmd6.bmp	blankscreen.bmp	circle.bmp
33	real_b	real_bottomleft_diff_b	4	399	23	mask.bmp	blankscreen.bmp	wfn7.bmp	blankscreen.bmp	square.bmp
33	real_b	real_topleft_diff_b	5	538	18	mask.bmp	blankscreen.bmp	wmd8.bmp	blankscreen.bmp	circle.bmp
33	real_b	real_bottomright_diff_b	6	687	18	mask.bmp	blankscreen.bmp	wmd7.bmp	blankscreen.bmp	circle.bmp
33	real_b	real_topright_diff_b	7	671	18	mask.bmp	blankscreen.bmp	wfd8.bmp	blankscreen.bmp	circle.bmp
33	real_b	real_bottomright_same_b	8	542	18	mask.bmp	blankscreen.bmp	wfd10.bmp	blankscreen.bmp	circle.bmp
33	real_b	real_topright_diff_b	9	372	23	mask.bmp	blankscreen.bmp	wfn6.bmp	blankscreen.bmp	square.bmp
33	real_b	real_bottomleft_same_b	10	575	23	mask.bmp	blankscreen.bmp	wfd9.bmp	blankscreen.bmp	square.bmp
33	real_b	real_topright_same_b	11	403	23	mask.bmp	blankscreen.bmp	wfn9.bmp	blankscreen.bmp	square.bmp
33	real_b	real_bottomright_same_b	12	510	23	mask.bmp	blankscreen.bmp	wfn10.bmp	blankscreen.bmp	square.bmp
33	real_b	real_topleft_same_b	13	484	18	mask.bmp	blankscreen.bmp	wmn9.bmp	blankscreen.bmp	circle.bmp
33	real_b	real_topleft_diff_b	14	540	18	mask.bmp	blankscreen.bmp	wmn6.bmp	blankscreen.bmp	circle.bmp
33	real_b	real_bottomright_diff_b	15	657	23	mask.bmp	blankscreen.bmp	wfn8.bmp	blankscreen.bmp	square.bmp
33	real_b	real_topright_same_b	16	577	18	mask.bmp	blankscreen.bmp	wmn10.bmp	blankscreen.bmp	circle.bmp
33	real_b	real_topright_diff_b	17	453	23	mask.bmp	blankscreen.bmp	wmn7.bmp	blankscreen.bmp	square.bmp
33	real_b	real_bottomleft_diff_b	18	654	18	mask.bmp	blankscreen.bmp	wmn8.bmp	blankscreen.bmp	circle.bmp
33	real_b	real_bottomleft_same_b	19	606	23	mask.bmp	blankscreen.bmp	wmd10.bmp	blankscreen.bmp	square.bmp
33	real_b	real_topleft_diff_b	20	497	23	mask.bmp	blankscreen.bmp	wfd7.bmp	blankscreen.bmp	square.bmp
33	real_c	real_topright_same_c	1	574	23	mask.bmp	blankscreen.bmp	wmd1.bmp	blankscreen.bmp	square.bmp
33	real_c	real_topright_diff_c	2	370	18	mask.bmp	blankscreen.bmp	wmd4.bmp	blankscreen.bmp	circle.bmp
33	real_c	real_topleft_diff_c	3	910	23	mask.bmp	blankscreen.bmp	wfd3.bmp	blankscreen.bmp	square.bmp
33	real_c	real_bottomleft_diff_c	4	532	18	mask.bmp	blankscreen.bmp	wfn3.bmp	blankscreen.bmp	circle.bmp
33	real_c	real_bottomleft_diff_c	5	506	23	mask.bmp	blankscreen.bmp	wmd5.bmp	blankscreen.bmp	square.bmp
33	real_c	real_topleft_same_c	6	608	23	mask.bmp	blankscreen.bmp	wfd1.bmp	blankscreen.bmp	square.bmp
33	real_c	real_bottomleft_same_c	7	435	18	mask.bmp	blankscreen.bmp	wmn1.bmp	blankscreen.bmp	circle.bmp
33	real_c	real_bottomright_diff_c	8	652	18	mask.bmp	blankscreen.bmp	wmd3.bmp	blankscreen.bmp	circle.bmp
33	real_c	real_topright_same_c	9	860	23	mask.bmp	blankscreen.bmp	wfn2.bmp	blankscreen.bmp	square.bmp
33	real_c	real_bottomright_same_c	10	773	18	mask.bmp	blankscreen.bmp	wmd2.bmp	blankscreen.bmp	circle.bmp
33	real_c	real_bottomleft_diff_c	11	625	23	mask.bmp	blankscreen.bmp	wfd4.bmp	blankscreen.bmp	square.bmp
33	real_c	real_topright_diff_c	12	499	23	mask.bmp	blankscreen.bmp	wmn3.bmp	blankscreen.bmp	square.bmp
33	real_c	real_bottomleft_same_c	13	569	18	mask.bmp	blankscreen.bmp	wfd2.bmp	blankscreen.bmp	circle.bmp
33	real_c	real_topleft_same_c	14	557	18	mask.bmp	blankscreen.bmp	wfn1.bmp	blankscreen.bmp	circle.bmp
33	real_c	real_topleft_diff_c	15	578	23	mask.bmp	blankscreen.bmp	wmn5.bmp	blankscreen.bmp	square.bmp
33	real_c	real_bottomright_same_c	16	646	18	mask.bmp	blankscreen.bmp	wmn2.bmp	blankscreen.bmp	circle.bmp
33	real_c	real_topright_diff_c	17	823	18	mask.bmp	blankscreen.bmp	wfn5.bmp	blankscreen.bmp	circle.bmp
33	real_c	real_topleft_diff_c	18	577	18	mask.bmp	blankscreen.bmp	wfn4.bmp	blankscreen.bmp	circle.bmp
33	real_c	real_bottomright_diff_c	19	564	23	mask.bmp	blankscreen.bmp	wmn4.bmp	blankscreen.bmp	square.bmp
33	real_c	real_bottomright_diff_c	20	472	23	mask.bmp	blankscreen.bmp	wfd5.bmp	blankscreen.bmp	square.bmp
33	real_d	real_topleft_diff_d	1	478	18	mask.bmp	blankscreen.bmp	wfn10.bmp	blankscreen.bmp	circle.bmp
33	real_d	real_topleft_same_d	2	373	18	mask.bmp	blankscreen.bmp	wmn6.bmp	blankscreen.bmp	square.bmp
33	real_d	real_bottomleft_diff_d	3	369	18	mask.bmp	blankscreen.bmp	wfd10.bmp	blankscreen.bmp	circle.bmp
33	real_d	real_topright_same_d	4	365	23	mask.bmp	blankscreen.bmp	wfd6.bmp	blankscreen.bmp	square.bmp
33	real_d	real_topleft_diff_d	5	361	18	mask.bmp	blankscreen.bmp	wmn8.bmp	blankscreen.bmp	circle.bmp
33	real_d	real_topleft_same_d	6	358	18	mask.bmp	blankscreen.bmp	wmd6.bmp	blankscreen.bmp	square.bmp
33	real_d	real_bottomright_same_d	7	706	18	mask.bmp	blankscreen.bmp	wfn7.bmp	blankscreen.bmp	circle.bmp
33	real_d	real_bottomright_diff_d	8	433	18	mask.bmp	blankscreen.bmp	wmn10.bmp	blankscreen.bmp	circle.bmp
33	real_d	real_topright_diff_d	9	490	18	mask.bmp	blankscreen.bmp	wmd10.bmp	blankscreen.bmp	circle.bmp
33	real_d	real_bottomright_diff_d	10	561	23	mask.bmp	blankscreen.bmp	wfd8.bmp	blankscreen.bmp	square.bmp
33	real_d	real_topright_diff_d	11	422	23	mask.bmp	blankscreen.bmp	wfd9.bmp	blankscreen.bmp	square.bmp
33	real_d	real_topright_diff_d	12	400	23	mask.bmp	blankscreen.bmp	wfn8.bmp	blankscreen.bmp	square.bmp
33	real_d	real_bottomleft_diff_d	13	522	23	mask.bmp	blankscreen.bmp	wmn9.bmp	blankscreen.bmp	square.bmp
33	real_d	real_bottomleft_diff_d	14	608	18	mask.bmp	blankscreen.bmp	wmd8.bmp	blankscreen.bmp	circle.bmp
33	real_d	real_bottomright_same_d	15	562	18	mask.bmp	blankscreen.bmp	wfd7.bmp	blankscreen.bmp	circle.bmp
33	real_d	real_bottomleft_same_d	16	679	23	mask.bmp	blankscreen.bmp	wmn7.bmp	blankscreen.bmp	circle.bmp
33	real_d	real_bottomleft_same_d	17	551	23	mask.bmp	blankscreen.bmp	wfn6.bmp	blankscreen.bmp	square.bmp
33	real_d	real_topright_same_d	18	556	18	mask.bmp	blankscreen.bmp	wmd7.bmp	blankscreen.bmp	square.bmp
33	real_d	real_topleft_diff_d	19	576	18	mask.bmp	blankscreen.bmp	wmd9.bmp	blankscreen.bmp	circle.bmp
33	real_d	real_bottomright_diff_d	20	820	18	mask.bmp	blankscreen.bmp	wfn9.bmp	blankscreen.bmp	circle.bmp
37	practice	practice_topright_same	1	2229	18	mask.bmp	blankscreen.bmp	practice3.jpg	blankscreen.bmp	circle.bmp
37	practice	practice_bottomleft_same	2	791	18	mask.bmp	blankscreen.bmp	practice6.jpg	blankscreen.bmp	circle.bmp
37	practice	practice_topleft_same	3	754	18	mask.bmp	blankscreen.bmp	practice1.jpg	blankscreen.bmp	circle.bmp
37	practice	practice_bottomright_same	4	462	18	mask.bmp	blankscreen.bmp	practice8.jpg	blankscreen.bmp	circle.bmp
37	practice	practice_bottomright_diff	5	727	23	mask.bmp	blankscreen.bmp	practice12.jpg	blankscreen.bmp	square.bmp
37	practice	practice_topleft_same	6	597	23	mask.bmp	blankscreen.bmp	practice2.jpg	blankscreen.bmp	square.bmp
37	practice	practice_topright_same	7	471	18	mask.bmp	blankscreen.bmp	practice4.jpg	blankscreen.bmp	circle.bmp
37	practice	practice_bottomleft_diff	8	847	23	mask.bmp	blankscreen.bmp	practice11.jpg	blankscreen.bmp	square.bmp
37	practice	practice_bottomleft_same	9	424	18	mask.bmp	blankscreen.bmp	practice5.jpg	blankscreen.bmp	circle.bmp
37	practice	practice_topleft_diff	10	882	23	mask.bmp	blankscreen.bmp	practice9.jpg	blankscreen.bmp	square.bmp
37	practice	practice_topright_diff	11	681	18	mask.bmp	blankscreen.bmp	practice10.jpg	blankscreen.bmp	circle.bmp
37	practice	practice_bottomright_same	12	776	18	mask.bmp	blankscreen.bmp	practice7.jpg	blankscreen.bmp	circle.bmp
37	real_a	real_topleft_diff_a	1	787	23	mask.bmp	blankscreen.bmp	wmd2.bmp	blankscreen.bmp	square.bmp
37	real_a	real_topleft_diff_a	2	638	23	mask.bmp	blankscreen.bmp	wfn3.bmp	blankscreen.bmp	square.bmp
37	real_a	real_topright_same_a	3	991	23	mask.bmp	blankscreen.bmp	wmn4.bmp	blankscreen.bmp	square.bmp
37	real_a	real_bottomright_diff_a	4	626	23	mask.bmp	blankscreen.bmp	wmn3.bmp	blankscreen.bmp	square.bmp
37	real_a	real_topright_same_a	5	548	23	mask.bmp	blankscreen.bmp	wfd5.bmp	blankscreen.bmp	square.bmp
37	real_a	real_topright_diff_a	6	681	23	mask.bmp	blankscreen.bmp	wmd3.bmp	blankscreen.bmp	square.bmp
37	real_a	real_bottomright_same_a	7	728	18	mask.bmp	blankscreen.bmp	wmn5.bmp	blankscreen.bmp	circle.bmp
37	real_a	real_topleft_same_a	8	806	18	mask.bmp	blankscreen.bmp	wfd4.bmp	blankscreen.bmp	circle.bmp
37	real_a	real_topleft_same_a	9	688	23	mask.bmp	blankscreen.bmp	wfn4.bmp	blankscreen.bmp	square.bmp
37	real_a	real_bottomleft_same_a	10	544	23	mask.bmp	blankscreen.bmp	wfn5.bmp	blankscreen.bmp	square.bmp
37	real_a	real_bottomleft_diff_a	11	773	18	mask.bmp	blankscreen.bmp	wmn2.bmp	blankscreen.bmp	circle.bmp
37	real_a	real_bottomright_diff_a	12	993	23	mask.bmp	blankscreen.bmp	wfn2.bmp	blankscreen.bmp	square.bmp
37	real_a	real_bottomleft_same_a	13	740	23	mask.bmp	blankscreen.bmp	wmd4.bmp	blankscreen.bmp	square.bmp
37	real_a	real_bottomright_same_a	14	721	18	mask.bmp	blankscreen.bmp	wmd5.bmp	blankscreen.bmp	circle.bmp
37	real_a	real_bottomleft_diff_a	15	1023	23	mask.bmp	blankscreen.bmp	wfd3.bmp	blankscreen.bmp	square.bmp
37	real_a	real_topright_diff_a	16	689	18	mask.bmp	blankscreen.bmp	wfd2.bmp	blankscreen.bmp	circle.bmp
37	real_a	real_bottomright_diff_a	17	768	18	mask.bmp	blankscreen.bmp	wmd1.bmp	blankscreen.bmp	circle.bmp
37	real_a	real_topleft_diff_a	18	716	23	mask.bmp	blankscreen.bmp	wfd1.bmp	blankscreen.bmp	square.bmp
37	real_a	real_bottomleft_diff_a	19	602	18	mask.bmp	blankscreen.bmp	wfn1.bmp	blankscreen.bmp	circle.bmp
