subject	blockcode	trialcode	trialnum	latency	response	stimulusitem1	stimulusitem2	stimulusitem3	stimulusitem4	stimulusitem5
9999	practice	practice_topright_diff	1	1169	23	mask.bmp	blankscreen.bmp	practice10.jpg	blankscreen.bmp	square.bmp
9999	practice	practice_bottomleft_same	2	813	18	mask.bmp	blankscreen.bmp	practice5.jpg	blankscreen.bmp	circle.bmp
9999	practice	practice_topright_same	3	792	23	mask.bmp	blankscreen.bmp	practice3.jpg	blankscreen.bmp	square.bmp
9999	practice	practice_bottomleft_same	4	827	18	mask.bmp	blankscreen.bmp	practice6.jpg	blankscreen.bmp	circle.bmp
9999	practice	practice_bottomright_same	5	1133	18	mask.bmp	blankscreen.bmp	practice7.jpg	blankscreen.bmp	circle.bmp
9999	practice	practice_topleft_diff	6	811	18	mask.bmp	blankscreen.bmp	practice9.jpg	blankscreen.bmp	circle.bmp
9999	practice	practice_topleft_same	7	685	23	mask.bmp	blankscreen.bmp	practice2.jpg	blankscreen.bmp	square.bmp
9999	practice	practice_bottomright_diff	8	1045	23	mask.bmp	blankscreen.bmp	practice12.jpg	blankscreen.bmp	square.bmp
9999	practice	practice_topleft_same	9	838	23	mask.bmp	blankscreen.bmp	practice1.jpg	blankscreen.bmp	square.bmp
9999	practice	practice_bottomright_same	10	767	18	mask.bmp	blankscreen.bmp	practice8.jpg	blankscreen.bmp	circle.bmp
9999	practice	practice_bottomleft_diff	11	947	18	mask.bmp	blankscreen.bmp	practice11.jpg	blankscreen.bmp	circle.bmp
9999	practice	practice_topright_same	12	824	18	mask.bmp	blankscreen.bmp	practice4.jpg	blankscreen.bmp	circle.bmp
9999	real_a	real_bottomleft_diff_a	1	1034	18	mask.bmp	blankscreen.bmp	wfd3.bmp	blankscreen.bmp	circle.bmp
9999	real_a	real_bottomright_diff_a	2	795	18	mask.bmp	blankscreen.bmp	wmd1.bmp	blankscreen.bmp	circle.bmp
9999	real_a	real_topright_diff_a	3	878	23	mask.bmp	blankscreen.bmp	wmn1.bmp	blankscreen.bmp	square.bmp
9999	real_a	real_bottomleft_diff_a	4	790	18	mask.bmp	blankscreen.bmp	wfn1.bmp	blankscreen.bmp	circle.bmp
9999	real_a	real_topright_diff_a	5	889	18	mask.bmp	blankscreen.bmp	wfd2.bmp	blankscreen.bmp	circle.bmp
9999	real_a	real_topleft_diff_a	6	1305	18	mask.bmp	blankscreen.bmp	wmd2.bmp	blankscreen.bmp	circle.bmp
9999	real_a	real_topright_diff_a	7	695	18	mask.bmp	blankscreen.bmp	wmd3.bmp	blankscreen.bmp	circle.bmp
9999	real_a	real_topleft_diff_a	8	806	23	mask.bmp	blankscreen.bmp	wfn3.bmp	blankscreen.bmp	square.bmp
9999	real_a	real_bottomleft_diff_a	9	1153	18	mask.bmp	blankscreen.bmp	wmn2.bmp	blankscreen.bmp	square.bmp
9999	real_a	real_bottomright_diff_a	10	733	18	mask.bmp	blankscreen.bmp	wmn3.bmp	blankscreen.bmp	circle.bmp
9999	real_a	real_bottomright_same_a	11	1339	23	mask.bmp	blankscreen.bmp	wmn5.bmp	blankscreen.bmp	square.bmp
9999	real_a	real_topleft_diff_a	12	1208	23	mask.bmp	blankscreen.bmp	wfd1.bmp	blankscreen.bmp	square.bmp
9999	real_a	real_bottomleft_same_a	13	1179	18	mask.bmp	blankscreen.bmp	wmd4.bmp	blankscreen.bmp	square.bmp
9999	real_a	real_topleft_same_a	14	895	23	mask.bmp	blankscreen.bmp	wfn4.bmp	blankscreen.bmp	square.bmp
9999	real_a	real_bottomright_diff_a	15	926	18	mask.bmp	blankscreen.bmp	wfn2.bmp	blankscreen.bmp	circle.bmp
9999	real_a	real_topright_same_a	16	1412	23	mask.bmp	blankscreen.bmp	wfd5.bmp	blankscreen.bmp	square.bmp
9999	real_a	real_bottomright_same_a	17	735	23	mask.bmp	blankscreen.bmp	wmd5.bmp	blankscreen.bmp	square.bmp
9999	real_a	real_topleft_same_a	18	628	18	mask.bmp	blankscreen.bmp	wfd4.bmp	blankscreen.bmp	circle.bmp
9999	real_a	real_bottomleft_same_a	19	1414	18	mask.bmp	blankscreen.bmp	wfn5.bmp	blankscreen.bmp	circle.bmp
9999	real_a	real_topright_same_a	20	760	18	mask.bmp	blankscreen.bmp	wmn4.bmp	blankscreen.bmp	circle.bmp
9999	real_b	real_topleft_same_b	1	1168	23	mask.bmp	blankscreen.bmp	wmd9.bmp	blankscreen.bmp	square.bmp
9999	real_b	real_topleft_diff_b	2	1300	18	mask.bmp	blankscreen.bmp	wmn6.bmp	blankscreen.bmp	circle.bmp
9999	real_b	real_bottomleft_same_b	3	1011	23	mask.bmp	blankscreen.bmp	wfd9.bmp	blankscreen.bmp	square.bmp
9999	real_b	real_bottomright_diff_b	4	1357	18	mask.bmp	blankscreen.bmp	wfd6.bmp	blankscreen.bmp	circle.bmp
9999	real_b	real_bottomright_same_b	5	642	23	mask.bmp	blankscreen.bmp	wfd10.bmp	blankscreen.bmp	square.bmp
9999	real_b	real_bottomright_diff_b	6	835	23	mask.bmp	blankscreen.bmp	wmd7.bmp	blankscreen.bmp	square.bmp
9999	real_b	real_bottomright_same_b	7	565	23	mask.bmp	blankscreen.bmp	wfn10.bmp	blankscreen.bmp	square.bmp
9999	real_b	real_topright_same_b	8	777	23	mask.bmp	blankscreen.bmp	wmn10.bmp	blankscreen.bmp	square.bmp
9999	real_b	real_topleft_same_b	9	692	23	mask.bmp	blankscreen.bmp	wmn9.bmp	blankscreen.bmp	square.bmp
9999	real_b	real_topright_diff_b	10	1020	23	mask.bmp	blankscreen.bmp	wmn7.bmp	blankscreen.bmp	square.bmp
9999	real_b	real_topright_diff_b	11	726	23	mask.bmp	blankscreen.bmp	wfd8.bmp	blankscreen.bmp	square.bmp
9999	real_b	real_topright_diff_b	12	788	23	mask.bmp	blankscreen.bmp	wfn6.bmp	blankscreen.bmp	square.bmp
9999	real_b	real_bottomleft_diff_b	13	687	23	mask.bmp	blankscreen.bmp	wmn8.bmp	blankscreen.bmp	square.bmp
9999	real_b	real_bottomleft_same_b	14	646	23	mask.bmp	blankscreen.bmp	wmd10.bmp	blankscreen.bmp	square.bmp
9999	real_b	real_bottomleft_diff_b	15	712	23	mask.bmp	blankscreen.bmp	wmd6.bmp	blankscreen.bmp	square.bmp
9999	real_b	real_bottomleft_diff_b	16	1158	18	mask.bmp	blankscreen.bmp	wfn7.bmp	blankscreen.bmp	circle.bmp
9999	real_b	real_bottomright_diff_b	17	1291	23	mask.bmp	blankscreen.bmp	wfn8.bmp	blankscreen.bmp	square.bmp
9999	real_b	real_topleft_diff_b	18	762	23	mask.bmp	blankscreen.bmp	wmd8.bmp	blankscreen.bmp	square.bmp
9999	real_b	real_topright_same_b	19	1199	18	mask.bmp	blankscreen.bmp	wfn9.bmp	blankscreen.bmp	circle.bmp
9999	real_b	real_topleft_diff_b	20	1250	23	mask.bmp	blankscreen.bmp	wfd7.bmp	blankscreen.bmp	square.bmp
9999	real_c	real_bottomleft_same_c	1	944	18	mask.bmp	blankscreen.bmp	wmn1.bmp	blankscreen.bmp	circle.bmp
9999	real_c	real_topleft_diff_c	2	1701	18	mask.bmp	blankscreen.bmp	wfn4.bmp	blankscreen.bmp	square.bmp
9999	real_c	real_topright_diff_c	3	828	23	mask.bmp	blankscreen.bmp	wmd4.bmp	blankscreen.bmp	square.bmp
9999	real_c	real_topleft_same_c	4	686	23	mask.bmp	blankscreen.bmp	wfn1.bmp	blankscreen.bmp	square.bmp
9999	real_c	real_topright_diff_c	5	765	23	mask.bmp	blankscreen.bmp	wmn3.bmp	blankscreen.bmp	square.bmp
9999	real_c	real_bottomleft_same_c	6	569	23	mask.bmp	blankscreen.bmp	wfd2.bmp	blankscreen.bmp	square.bmp
9999	real_c	real_topright_same_c	7	941	18	mask.bmp	blankscreen.bmp	wfn2.bmp	blankscreen.bmp	circle.bmp
9999	real_c	real_topleft_diff_c	8	843	23	mask.bmp	blankscreen.bmp	wfd3.bmp	blankscreen.bmp	square.bmp
9999	real_c	real_bottomright_same_c	9	756	23	mask.bmp	blankscreen.bmp	wmn2.bmp	blankscreen.bmp	square.bmp
9999	real_c	real_topright_same_c	10	649	23	mask.bmp	blankscreen.bmp	wmd1.bmp	blankscreen.bmp	square.bmp
9999	real_c	real_bottomright_same_c	11	649	18	mask.bmp	blankscreen.bmp	wmd2.bmp	blankscreen.bmp	circle.bmp
9999	real_c	real_bottomleft_diff_c	12	1202	23	mask.bmp	blankscreen.bmp	wfd4.bmp	blankscreen.bmp	square.bmp
9999	real_c	real_bottomright_diff_c	13	917	23	mask.bmp	blankscreen.bmp	wmn4.bmp	blankscreen.bmp	square.bmp
9999	real_c	real_topleft_diff_c	14	811	18	mask.bmp	blankscreen.bmp	wmn5.bmp	blankscreen.bmp	circle.bmp
9999	real_c	real_topleft_same_c	15	781	18	mask.bmp	blankscreen.bmp	wfd1.bmp	blankscreen.bmp	circle.bmp
9999	real_c	real_bottomright_diff_c	16	1017	23	mask.bmp	blankscreen.bmp	wmd3.bmp	blankscreen.bmp	circle.bmp
9999	real_c	real_bottomleft_diff_c	17	947	23	mask.bmp	blankscreen.bmp	wmd5.bmp	blankscreen.bmp	square.bmp
9999	real_c	real_topright_diff_c	18	1239	18	mask.bmp	blankscreen.bmp	wfn5.bmp	blankscreen.bmp	circle.bmp
9999	real_c	real_bottomleft_diff_c	19	1001	18	mask.bmp	blankscreen.bmp	wfn3.bmp	blankscreen.bmp	circle.bmp
9999	real_c	real_bottomright_diff_c	20	1915	23	mask.bmp	blankscreen.bmp	wfd5.bmp	blankscreen.bmp	square.bmp
9999	real_d	real_bottomleft_diff_d	1	1162	18	mask.bmp	blankscreen.bmp	wmn9.bmp	blankscreen.bmp	circle.bmp
9999	real_d	real_bottomright_diff_d	2	887	23	mask.bmp	blankscreen.bmp	wfn9.bmp	blankscreen.bmp	square.bmp
9999	real_d	real_topleft_diff_d	3	3302	23	mask.bmp	blankscreen.bmp	wmd9.bmp	blankscreen.bmp	square.bmp
9999	real_d	real_topright_same_d	4	901	23	mask.bmp	blankscreen.bmp	wfd6.bmp	blankscreen.bmp	square.bmp
9999	real_d	real_bottomleft_same_d	5	571	18	mask.bmp	blankscreen.bmp	wfn6.bmp	blankscreen.bmp	circle.bmp
9999	real_d	real_bottomright_same_d	6	1015	18	mask.bmp	blankscreen.bmp	wfd7.bmp	blankscreen.bmp	circle.bmp
9999	real_d	real_bottomright_diff_d	7	1537	23	mask.bmp	blankscreen.bmp	wmn10.bmp	blankscreen.bmp	square.bmp
9999	real_d	real_topleft_same_d	8	711	23	mask.bmp	blankscreen.bmp	wmd6.bmp	blankscreen.bmp	square.bmp
9999	real_d	real_topleft_diff_d	9	861	18	mask.bmp	blankscreen.bmp	wmn8.bmp	blankscreen.bmp	circle.bmp
9999	real_d	real_bottomleft_same_d	10	638	23	mask.bmp	blankscreen.bmp	wmn7.bmp	blankscreen.bmp	square.bmp
9999	real_d	real_bottomleft_diff_d	11	871	23	mask.bmp	blankscreen.bmp	wmd8.bmp	blankscreen.bmp	square.bmp
9999	real_d	real_topright_diff_d	12	999	23	mask.bmp	blankscreen.bmp	wmd10.bmp	blankscreen.bmp	square.bmp
9999	real_d	real_topright_diff_d	13	770	23	mask.bmp	blankscreen.bmp	wfn8.bmp	blankscreen.bmp	square.bmp
9999	real_d	real_topleft_diff_d	14	702	23	mask.bmp	blankscreen.bmp	wfn10.bmp	blankscreen.bmp	square.bmp
9999	real_d	real_topleft_same_d	15	565	23	mask.bmp	blankscreen.bmp	wmn6.bmp	blankscreen.bmp	square.bmp
9999	real_d	real_topright_diff_d	16	825	23	mask.bmp	blankscreen.bmp	wfd9.bmp	blankscreen.bmp	square.bmp
9999	real_d	real_bottomleft_diff_d	17	1027	18	mask.bmp	blankscreen.bmp	wfd10.bmp	blankscreen.bmp	circle.bmp
9999	real_d	real_bottomright_same_d	18	1013	23	mask.bmp	blankscreen.bmp	wfn7.bmp	blankscreen.bmp	square.bmp
9999	real_d	real_topright_same_d	19	815	23	mask.bmp	blankscreen.bmp	wmd7.bmp	blankscreen.bmp	square.bmp
9999	real_d	real_bottomright_diff_d	20	1297	18	mask.bmp	blankscreen.bmp	wfd8.bmp	blankscreen.bmp	circle.bmp
3	practice	practice_topright_diff	1	737	23	mask.bmp	blankscreen.bmp	practice10.jpg	blankscreen.bmp	square.bmp
3	practice	practice_bottomright_same	2	814	18	mask.bmp	blankscreen.bmp	practice7.jpg	blankscreen.bmp	square.bmp
3	practice	practice_bottomright_diff	3	696	23	mask.bmp	blankscreen.bmp	practice12.jpg	blankscreen.bmp	square.bmp
3	practice	practice_bottomleft_same	4	775	18	mask.bmp	blankscreen.bmp	practice5.jpg	blankscreen.bmp	circle.bmp
3	practice	practice_topleft_diff	5	611	23	mask.bmp	blankscreen.bmp	practice9.jpg	blankscreen.bmp	square.bmp
3	practice	practice_bottomright_same	6	494	23	mask.bmp	blankscreen.bmp	practice8.jpg	blankscreen.bmp	square.bmp
3	practice	practice_topright_same	7	653	23	mask.bmp	blankscreen.bmp	practice3.jpg	blankscreen.bmp	square.bmp
3	practice	practice_bottomleft_same	8	638	23	mask.bmp	blankscreen.bmp	practice6.jpg	blankscreen.bmp	square.bmp
3	practice	practice_topleft_same	9	671	18	mask.bmp	blankscreen.bmp	practice1.jpg	blankscreen.bmp	circle.bmp
3	practice	practice_topleft_same	10	775	23	mask.bmp	blankscreen.bmp	practice2.jpg	blankscreen.bmp	square.bmp
3	practice	practice_topright_same	11	795	23	mask.bmp	blankscreen.bmp	practice4.jpg	blankscreen.bmp	square.bmp
3	practice	practice_bottomleft_diff	12	646	23	mask.bmp	blankscreen.bmp	practice11.jpg	blankscreen.bmp	square.bmp
3	real_a	real_topleft_same_a	1	795	18	mask.bmp	blankscreen.bmp	wfd4.bmp	blankscreen.bmp	circle.bmp
3	real_a	real_bottomleft_diff_a	2	694	18	mask.bmp	blankscreen.bmp	wfd3.bmp	blankscreen.bmp	circle.bmp
3	real_a	real_topright_same_a	3	877	23	mask.bmp	blankscreen.bmp	wfd5.bmp	blankscreen.bmp	square.bmp
3	real_a	real_topright_diff_a	4	509	18	mask.bmp	blankscreen.bmp	wmn1.bmp	blankscreen.bmp	circle.bmp
3	real_a	real_bottomright_diff_a	5	892	23	mask.bmp	blankscreen.bmp	wmd1.bmp	blankscreen.bmp	square.bmp
3	real_a	real_bottomleft_diff_a	6	660	18	mask.bmp	blankscreen.bmp	wmn2.bmp	blankscreen.bmp	circle.bmp
3	real_a	real_topright_diff_a	7	708	23	mask.bmp	blankscreen.bmp	wmd3.bmp	blankscreen.bmp	square.bmp
3	real_a	real_bottomright_diff_a	8	771	18	mask.bmp	blankscreen.bmp	wmn3.bmp	blankscreen.bmp	circle.bmp
3	real_a	real_bottomright_diff_a	9	846	18	mask.bmp	blankscreen.bmp	wfn2.bmp	blankscreen.bmp	circle.bmp
3	real_a	real_topleft_diff_a	10	632	18	mask.bmp	blankscreen.bmp	wfd1.bmp	blankscreen.bmp	circle.bmp
3	real_a	real_bottomleft_diff_a	11	633	23	mask.bmp	blankscreen.bmp	wfn1.bmp	blankscreen.bmp	square.bmp
3	real_a	real_topright_same_a	12	714	18	mask.bmp	blankscreen.bmp	wmn4.bmp	blankscreen.bmp	circle.bmp
3	real_a	real_topleft_diff_a	13	584	18	mask.bmp	blankscreen.bmp	wmd2.bmp	blankscreen.bmp	circle.bmp
3	real_a	real_bottomleft_same_a	14	932	18	mask.bmp	blankscreen.bmp	wmd4.bmp	blankscreen.bmp	circle.bmp
3	real_a	real_bottomright_same_a	15	785	18	mask.bmp	blankscreen.bmp	wmd5.bmp	blankscreen.bmp	circle.bmp
3	real_a	real_bottomleft_same_a	16	717	23	mask.bmp	blankscreen.bmp	wfn5.bmp	blankscreen.bmp	square.bmp
3	real_a	real_bottomright_same_a	17	834	18	mask.bmp	blankscreen.bmp	wmn5.bmp	blankscreen.bmp	square.bmp
3	real_a	real_topright_diff_a	18	740	18	mask.bmp	blankscreen.bmp	wfd2.bmp	blankscreen.bmp	circle.bmp
3	real_a	real_topleft_same_a	19	905	18	mask.bmp	blankscreen.bmp	wfn4.bmp	blankscreen.bmp	circle.bmp
3	real_a	real_topleft_diff_a	20	576	18	mask.bmp	blankscreen.bmp	wfn3.bmp	blankscreen.bmp	circle.bmp
3	real_b	real_topleft_diff_b	1	712	23	mask.bmp	blankscreen.bmp	wmn6.bmp	blankscreen.bmp	square.bmp
3	real_b	real_bottomleft_same_b	2	527	18	mask.bmp	blankscreen.bmp	wfd9.bmp	blankscreen.bmp	circle.bmp
3	real_b	real_topright_same_b	3	533	18	mask.bmp	blankscreen.bmp	wmn10.bmp	blankscreen.bmp	circle.bmp
3	real_b	real_topright_diff_b	4	651	18	mask.bmp	blankscreen.bmp	wmn7.bmp	blankscreen.bmp	circle.bmp
3	real_b	real_bottomleft_diff_b	5	907	18	mask.bmp	blankscreen.bmp	wfn7.bmp	blankscreen.bmp	circle.bmp
3	real_b	real_topright_same_b	6	474	18	mask.bmp	blankscreen.bmp	wfn9.bmp	blankscreen.bmp	circle.bmp
3	real_b	real_bottomright_diff_b	7	458	18	mask.bmp	blankscreen.bmp	wfn8.bmp	blankscreen.bmp	circle.bmp
3	real_b	real_topright_diff_b	8	675	18	mask.bmp	blankscreen.bmp	wfn6.bmp	blankscreen.bmp	circle.bmp
3	real_b	real_topleft_same_b	9	562	18	mask.bmp	blankscreen.bmp	wmn9.bmp	blankscreen.bmp	circle.bmp
3	real_b	real_bottomright_same_b	10	583	18	mask.bmp	blankscreen.bmp	wfn10.bmp	blankscreen.bmp	circle.bmp
3	real_b	real_topleft_same_b	11	643	23	mask.bmp	blankscreen.bmp	wmd9.bmp	blankscreen.bmp	square.bmp
3	real_b	real_bottomleft_same_b	12	684	18	mask.bmp	blankscreen.bmp	wmd10.bmp	blankscreen.bmp	circle.bmp
3	real_b	real_topleft_diff_b	13	739	23	mask.bmp	blankscreen.bmp	wfd7.bmp	blankscreen.bmp	square.bmp
3	real_b	real_bottomright_same_b	14	553	18	mask.bmp	blankscreen.bmp	wfd10.bmp	blankscreen.bmp	circle.bmp
3	real_b	real_bottomleft_diff_b	15	693	23	mask.bmp	blankscreen.bmp	wmn8.bmp	blankscreen.bmp	square.bmp
3	real_b	real_bottomleft_diff_b	16	677	18	mask.bmp	blankscreen.bmp	wmd6.bmp	blankscreen.bmp	circle.bmp
3	real_b	real_bottomright_diff_b	17	828	23	mask.bmp	blankscreen.bmp	wfd6.bmp	blankscreen.bmp	square.bmp
3	real_b	real_topright_diff_b	18	719	23	mask.bmp	blankscreen.bmp	wfd8.bmp	blankscreen.bmp	square.bmp
3	real_b	real_bottomright_diff_b	19	628	18	mask.bmp	blankscreen.bmp	wmd7.bmp	blankscreen.bmp	circle.bmp
3	real_b	real_topleft_diff_b	20	782	23	mask.bmp	blankscreen.bmp	wmd8.bmp	blankscreen.bmp	square.bmp
3	real_c	real_bottomleft_diff_c	1	530	18	mask.bmp	blankscreen.bmp	wfn3.bmp	blankscreen.bmp	circle.bmp
3	real_c	real_bottomleft_same_c	2	552	18	mask.bmp	blankscreen.bmp	wmn1.bmp	blankscreen.bmp	circle.bmp
3	real_c	real_topleft_diff_c	3	636	23	mask.bmp	blankscreen.bmp	wfd3.bmp	blankscreen.bmp	square.bmp
3	real_c	real_topright_diff_c	4	646	18	mask.bmp	blankscreen.bmp	wfn5.bmp	blankscreen.bmp	circle.bmp
3	real_c	real_bottomright_diff_c	5	591	23	mask.bmp	blankscreen.bmp	wmn4.bmp	blankscreen.bmp	square.bmp
3	real_c	real_bottomright_same_c	6	690	18	mask.bmp	blankscreen.bmp	wmn2.bmp	blankscreen.bmp	circle.bmp
3	real_c	real_bottomright_diff_c	7	625	18	mask.bmp	blankscreen.bmp	wmd3.bmp	blankscreen.bmp	circle.bmp
3	real_c	real_topright_diff_c	8	547	23	mask.bmp	blankscreen.bmp	wmd4.bmp	blankscreen.bmp	square.bmp
3	real_c	real_bottomleft_diff_c	9	520	18	mask.bmp	blankscreen.bmp	wmd5.bmp	blankscreen.bmp	circle.bmp
3	real_c	real_bottomleft_diff_c	10	646	23	mask.bmp	blankscreen.bmp	wfd4.bmp	blankscreen.bmp	square.bmp
3	real_c	real_bottomright_same_c	11	670	18	mask.bmp	blankscreen.bmp	wmd2.bmp	blankscreen.bmp	circle.bmp
3	real_c	real_topleft_diff_c	12	511	18	mask.bmp	blankscreen.bmp	wmn5.bmp	blankscreen.bmp	circle.bmp
3	real_c	real_topright_diff_c	13	405	18	mask.bmp	blankscreen.bmp	wmn3.bmp	blankscreen.bmp	circle.bmp
3	real_c	real_topleft_same_c	14	472	23	mask.bmp	blankscreen.bmp	wfd1.bmp	blankscreen.bmp	square.bmp
3	real_c	real_topright_same_c	15	616	23	mask.bmp	blankscreen.bmp	wmd1.bmp	blankscreen.bmp	square.bmp
3	real_c	real_bottomright_diff_c	16	626	23	mask.bmp	blankscreen.bmp	wfd5.bmp	blankscreen.bmp	square.bmp
3	real_c	real_topleft_diff_c	17	580	18	mask.bmp	blankscreen.bmp	wfn4.bmp	blankscreen.bmp	circle.bmp
3	real_c	real_bottomleft_same_c	18	615	23	mask.bmp	blankscreen.bmp	wfd2.bmp	blankscreen.bmp	square.bmp
3	real_c	real_topleft_same_c	19	617	18	mask.bmp	blankscreen.bmp	wfn1.bmp	blankscreen.bmp	circle.bmp
3	real_c	real_topright_same_c	20	588	18	mask.bmp	blankscreen.bmp	wfn2.bmp	blankscreen.bmp	circle.bmp
3	real_d	real_topright_diff_d	1	536	23	mask.bmp	blankscreen.bmp	wfd9.bmp	blankscreen.bmp	square.bmp
3	real_d	real_topleft_diff_d	2	661	18	mask.bmp	blankscreen.bmp	wmd9.bmp	blankscreen.bmp	circle.bmp
3	real_d	real_bottomleft_diff_d	3	518	23	mask.bmp	blankscreen.bmp	wmn9.bmp	blankscreen.bmp	square.bmp
3	real_d	real_topleft_diff_d	4	636	18	mask.bmp	blankscreen.bmp	wmn8.bmp	blankscreen.bmp	circle.bmp
3	real_d	real_bottomright_same_d	5	637	18	mask.bmp	blankscreen.bmp	wfn7.bmp	blankscreen.bmp	circle.bmp
3	real_d	real_topright_diff_d	6	486	18	mask.bmp	blankscreen.bmp	wfn8.bmp	blankscreen.bmp	circle.bmp
3	real_d	real_bottomleft_diff_d	7	1446	18	mask.bmp	blankscreen.bmp	wmd8.bmp	blankscreen.bmp	circle.bmp
3	real_d	real_topleft_same_d	8	623	23	mask.bmp	blankscreen.bmp	wmn6.bmp	blankscreen.bmp	square.bmp
3	real_d	real_bottomleft_same_d	9	657	18	mask.bmp	blankscreen.bmp	wfn6.bmp	blankscreen.bmp	circle.bmp
3	real_d	real_bottomright_same_d	10	642	18	mask.bmp	blankscreen.bmp	wfd7.bmp	blankscreen.bmp	circle.bmp
3	real_d	real_bottomright_diff_d	11	595	18	mask.bmp	blankscreen.bmp	wfd8.bmp	blankscreen.bmp	circle.bmp
3	real_d	real_topleft_same_d	12	774	23	mask.bmp	blankscreen.bmp	wmd6.bmp	blankscreen.bmp	square.bmp
3	real_d	real_bottomleft_same_d	13	555	23	mask.bmp	blankscreen.bmp	wmn7.bmp	blankscreen.bmp	square.bmp
3	real_d	real_bottomright_diff_d	14	559	18	mask.bmp	blankscreen.bmp	wfn9.bmp	blankscreen.bmp	circle.bmp
3	real_d	real_bottomright_diff_d	15	884	23	mask.bmp	blankscreen.bmp	wmn10.bmp	blankscreen.bmp	square.bmp
3	real_d	real_topright_diff_d	16	531	18	mask.bmp	blankscreen.bmp	wmd10.bmp	blankscreen.bmp	circle.bmp
3	real_d	real_topright_same_d	17	512	23	mask.bmp	blankscreen.bmp	wfd6.bmp	blankscreen.bmp	square.bmp
3	real_d	real_topleft_diff_d	18	615	23	mask.bmp	blankscreen.bmp	wfn10.bmp	blankscreen.bmp	square.bmp
3	real_d	real_bottomleft_diff_d	19	489	18	mask.bmp	blankscreen.bmp	wfd10.bmp	blankscreen.bmp	circle.bmp
3	real_d	real_topright_same_d	20	448	18	mask.bmp	blankscreen.bmp	wmd7.bmp	blankscreen.bmp	circle.bmp
6	practice	practice_topright_same	1	1625	23	mask.bmp	blankscreen.bmp	practice4.jpg	blankscreen.bmp	square.bmp
6	practice	practice_bottomleft_same	2	1092	23	mask.bmp	blankscreen.bmp	practice5.jpg	blankscreen.bmp	square.bmp
6	practice	practice_topleft_diff	3	971	18	mask.bmp	blankscreen.bmp	practice9.jpg	blankscreen.bmp	circle.bmp
6	practice	practice_bottomright_same	4	943	23	mask.bmp	blankscreen.bmp	practice7.jpg	blankscreen.bmp	square.bmp
6	practice	practice_bottomleft_diff	5	892	18	mask.bmp	blankscreen.bmp	practice11.jpg	blankscreen.bmp	circle.bmp
6	practice	practice_bottomleft_same	6	964	23	mask.bmp	blankscreen.bmp	practice6.jpg	blankscreen.bmp	square.bmp
6	practice	practice_topright_same	7	896	23	mask.bmp	blankscreen.bmp	practice3.jpg	blankscreen.bmp	square.bmp
6	practice	practice_topleft_same	8	840	23	mask.bmp	blankscreen.bmp	practice1.jpg	blankscreen.bmp	square.bmp
6	practice	practice_topright_diff	9	945	18	mask.bmp	blankscreen.bmp	practice10.jpg	blankscreen.bmp	circle.bmp
6	practice	practice_topleft_same	10	870	23	mask.bmp	blankscreen.bmp	practice2.jpg	blankscreen.bmp	square.bmp
6	practice	practice_bottomright_same	11	886	23	mask.bmp	blankscreen.bmp	practice8.jpg	blankscreen.bmp	square.bmp
6	practice	practice_bottomright_diff	12	966	23	mask.bmp	blankscreen.bmp	practice12.jpg	blankscreen.bmp	square.bmp
6	real_a	real_bottomleft_same_a	1	970	23	mask.bmp	blankscreen.bmp	wfn5.bmp	blankscreen.bmp	square.bmp
6	real_a	real_topright_same_a	2	782	23	mask.bmp	blankscreen.bmp	wmn4.bmp	blankscreen.bmp	square.bmp
6	real_a	real_bottomright_same_a	3	882	18	mask.bmp	blankscreen.bmp	wmd5.bmp	blankscreen.bmp	circle.bmp
6	real_a	real_topleft_same_a	4	1153	18	mask.bmp	blankscreen.bmp	wfd4.bmp	blankscreen.bmp	circle.bmp
6	real_a	real_topleft_diff_a	5	958	18	mask.bmp	blankscreen.bmp	wfd1.bmp	blankscreen.bmp	circle.bmp
6	real_a	real_topright_same_a	6	826	18	mask.bmp	blankscreen.bmp	wfd5.bmp	blankscreen.bmp	circle.bmp
6	real_a	real_topright_diff_a	7	1076	18	mask.bmp	blankscreen.bmp	wfd2.bmp	blankscreen.bmp	circle.bmp
6	real_a	real_bottomright_diff_a	8	852	23	mask.bmp	blankscreen.bmp	wfn2.bmp	blankscreen.bmp	square.bmp
6	real_a	real_topleft_same_a	9	741	23	mask.bmp	blankscreen.bmp	wfn4.bmp	blankscreen.bmp	square.bmp
6	real_a	real_bottomleft_diff_a	10	818	23	mask.bmp	blankscreen.bmp	wmn2.bmp	blankscreen.bmp	square.bmp
6	real_a	real_topright_diff_a	11	1084	18	mask.bmp	blankscreen.bmp	wmn1.bmp	blankscreen.bmp	circle.bmp
6	real_a	real_topright_diff_a	12	884	18	mask.bmp	blankscreen.bmp	wmd3.bmp	blankscreen.bmp	circle.bmp
6	real_a	real_bottomleft_diff_a	13	1035	18	mask.bmp	blankscreen.bmp	wfn1.bmp	blankscreen.bmp	circle.bmp
6	real_a	real_bottomleft_diff_a	14	948	18	mask.bmp	blankscreen.bmp	wfd3.bmp	blankscreen.bmp	circle.bmp
6	real_a	real_bottomright_diff_a	15	881	18	mask.bmp	blankscreen.bmp	wmd1.bmp	blankscreen.bmp	circle.bmp
6	real_a	real_bottomleft_same_a	16	872	18	mask.bmp	blankscreen.bmp	wmd4.bmp	blankscreen.bmp	circle.bmp
6	real_a	real_topleft_diff_a	17	944	23	mask.bmp	blankscreen.bmp	wmd2.bmp	blankscreen.bmp	square.bmp
6	real_a	real_topleft_diff_a	18	766	18	mask.bmp	blankscreen.bmp	wfn3.bmp	blankscreen.bmp	circle.bmp
6	real_a	real_bottomright_diff_a	19	946	18	mask.bmp	blankscreen.bmp	wmn3.bmp	blankscreen.bmp	circle.bmp
6	real_a	real_bottomright_same_a	20	887	23	mask.bmp	blankscreen.bmp	wmn5.bmp	blankscreen.bmp	square.bmp
6	real_b	real_bottomleft_diff_b	1	940	18	mask.bmp	blankscreen.bmp	wmd6.bmp	blankscreen.bmp	circle.bmp
6	real_b	real_bottomright_diff_b	2	801	23	mask.bmp	blankscreen.bmp	wfd6.bmp	blankscreen.bmp	square.bmp
6	real_b	real_bottomleft_diff_b	3	804	23	mask.bmp	blankscreen.bmp	wfn7.bmp	blankscreen.bmp	square.bmp
6	real_b	real_topleft_diff_b	4	862	23	mask.bmp	blankscreen.bmp	wfd7.bmp	blankscreen.bmp	square.bmp
6	real_b	real_bottomleft_same_b	5	807	23	mask.bmp	blankscreen.bmp	wmd10.bmp	blankscreen.bmp	square.bmp
6	real_b	real_topright_same_b	6	930	23	mask.bmp	blankscreen.bmp	wfn9.bmp	blankscreen.bmp	square.bmp
6	real_b	real_bottomright_diff_b	7	968	23	mask.bmp	blankscreen.bmp	wmd7.bmp	blankscreen.bmp	square.bmp
6	real_b	real_topright_diff_b	8	980	18	mask.bmp	blankscreen.bmp	wfn6.bmp	blankscreen.bmp	circle.bmp
6	real_b	real_topleft_diff_b	9	848	18	mask.bmp	blankscreen.bmp	wmn6.bmp	blankscreen.bmp	square.bmp
6	real_b	real_bottomright_same_b	10	912	18	mask.bmp	blankscreen.bmp	wfn10.bmp	blankscreen.bmp	square.bmp
6	real_b	real_topright_diff_b	11	1215	23	mask.bmp	blankscreen.bmp	wfd8.bmp	blankscreen.bmp	square.bmp
6	real_b	real_bottomright_diff_b	12	1057	18	mask.bmp	blankscreen.bmp	wfn8.bmp	blankscreen.bmp	circle.bmp
6	real_b	real_topleft_same_b	13	978	18	mask.bmp	blankscreen.bmp	wmd9.bmp	blankscreen.bmp	circle.bmp
6	real_b	real_topright_same_b	14	910	23	mask.bmp	blankscreen.bmp	wmn10.bmp	blankscreen.bmp	square.bmp
6	real_b	real_topright_diff_b	15	860	23	mask.bmp	blankscreen.bmp	wmn7.bmp	blankscreen.bmp	square.bmp
6	real_b	real_topleft_diff_b	16	885	18	mask.bmp	blankscreen.bmp	wmd8.bmp	blankscreen.bmp	circle.bmp
6	real_b	real_bottomright_same_b	17	908	23	mask.bmp	blankscreen.bmp	wfd10.bmp	blankscreen.bmp	square.bmp
6	real_b	real_topleft_same_b	18	875	23	mask.bmp	blankscreen.bmp	wmn9.bmp	blankscreen.bmp	square.bmp
6	real_b	real_bottomleft_diff_b	19	899	18	mask.bmp	blankscreen.bmp	wmn8.bmp	blankscreen.bmp	circle.bmp
6	real_b	real_bottomleft_same_b	20	890	18	mask.bmp	blankscreen.bmp	wfd9.bmp	blankscreen.bmp	circle.bmp
6	real_c	real_bottomright_diff_c	1	1162	18	mask.bmp	blankscreen.bmp	wmd3.bmp	blankscreen.bmp	circle.bmp
6	real_c	real_topleft_diff_c	2	887	23	mask.bmp	blankscreen.bmp	wfn4.bmp	blankscreen.bmp	square.bmp
6	real_c	real_topleft_same_c	3	870	23	mask.bmp	blankscreen.bmp	wfd1.bmp	blankscreen.bmp	square.bmp
6	real_c	real_topright_diff_c	4	782	18	mask.bmp	blankscreen.bmp	wmd4.bmp	blankscreen.bmp	circle.bmp
6	real_c	real_bottomright_diff_c	5	738	23	mask.bmp	blankscreen.bmp	wmn4.bmp	blankscreen.bmp	square.bmp
6	real_c	real_bottomright_diff_c	6	463	23	mask.bmp	blankscreen.bmp	wfd5.bmp	blankscreen.bmp	square.bmp
6	real_c	real_topright_same_c	7	639	18	mask.bmp	blankscreen.bmp	wmd1.bmp	blankscreen.bmp	circle.bmp
6	real_c	real_topright_diff_c	8	648	23	mask.bmp	blankscreen.bmp	wmn3.bmp	blankscreen.bmp	square.bmp
6	real_c	real_topleft_diff_c	9	705	23	mask.bmp	blankscreen.bmp	wmn5.bmp	blankscreen.bmp	square.bmp
6	real_c	real_bottomleft_diff_c	10	896	18	mask.bmp	blankscreen.bmp	wmd5.bmp	blankscreen.bmp	circle.bmp
6	real_c	real_topleft_diff_c	11	743	18	mask.bmp	blankscreen.bmp	wfd3.bmp	blankscreen.bmp	circle.bmp
6	real_c	real_bottomright_same_c	12	940	23	mask.bmp	blankscreen.bmp	wmn2.bmp	blankscreen.bmp	square.bmp
6	real_c	real_topright_same_c	13	1202	23	mask.bmp	blankscreen.bmp	wfn2.bmp	blankscreen.bmp	square.bmp
6	real_c	real_bottomleft_diff_c	14	740	18	mask.bmp	blankscreen.bmp	wfd4.bmp	blankscreen.bmp	circle.bmp
6	real_c	real_bottomleft_same_c	15	874	23	mask.bmp	blankscreen.bmp	wmn1.bmp	blankscreen.bmp	square.bmp
6	real_c	real_topleft_same_c	16	1026	18	mask.bmp	blankscreen.bmp	wfn1.bmp	blankscreen.bmp	circle.bmp
6	real_c	real_topright_diff_c	17	908	18	mask.bmp	blankscreen.bmp	wfn5.bmp	blankscreen.bmp	circle.bmp
6	real_c	real_bottomright_same_c	18	795	23	mask.bmp	blankscreen.bmp	wmd2.bmp	blankscreen.bmp	square.bmp
6	real_c	real_bottomleft_same_c	19	950	18	mask.bmp	blankscreen.bmp	wfd2.bmp	blankscreen.bmp	circle.bmp
6	real_c	real_bottomleft_diff_c	20	1370	23	mask.bmp	blankscreen.bmp	wfn3.bmp	blankscreen.bmp	square.bmp
6	real_d	real_topleft_diff_d	1	963	18	mask.bmp	blankscreen.bmp	wmn8.bmp	blankscreen.bmp	circle.bmp
6	real_d	real_bottomright_same_d	2	824	23	mask.bmp	blankscreen.bmp	wfd7.bmp	blankscreen.bmp	square.bmp
6	real_d	real_bottomright_diff_d	3	866	18	mask.bmp	blankscreen.bmp	wmn10.bmp	blankscreen.bmp	circle.bmp
6	real_d	real_topright_same_d	4	690	23	mask.bmp	blankscreen.bmp	wmd7.bmp	blankscreen.bmp	square.bmp
6	real_d	real_topright_diff_d	5	673	23	mask.bmp	blankscreen.bmp	wmd10.bmp	blankscreen.bmp	square.bmp
6	real_d	real_bottomleft_same_d	6	785	18	mask.bmp	blankscreen.bmp	wfn6.bmp	blankscreen.bmp	circle.bmp
6	real_d	real_bottomleft_diff_d	7	596	18	mask.bmp	blankscreen.bmp	wfd10.bmp	blankscreen.bmp	circle.bmp
6	real_d	real_bottomleft_diff_d	8	648	23	mask.bmp	blankscreen.bmp	wmn9.bmp	blankscreen.bmp	square.bmp
6	real_d	real_bottomright_diff_d	9	745	18	mask.bmp	blankscreen.bmp	wfd8.bmp	blankscreen.bmp	circle.bmp
6	real_d	real_bottomright_diff_d	10	758	23	mask.bmp	blankscreen.bmp	wfn9.bmp	blankscreen.bmp	square.bmp
6	real_d	real_topleft_same_d	11	722	23	mask.bmp	blankscreen.bmp	wmd6.bmp	blankscreen.bmp	square.bmp
6	real_d	real_topleft_diff_d	12	736	23	mask.bmp	blankscreen.bmp	wfn10.bmp	blankscreen.bmp	square.bmp
6	real_d	real_bottomleft_diff_d	13	798	18	mask.bmp	blankscreen.bmp	wmd8.bmp	blankscreen.bmp	circle.bmp
6	real_d	real_topright_diff_d	14	720	18	mask.bmp	blankscreen.bmp	wfn8.bmp	blankscreen.bmp	circle.bmp
6	real_d	real_topright_diff_d	15	606	23	mask.bmp	blankscreen.bmp	wfd9.bmp	blankscreen.bmp	square.bmp
6	real_d	real_topright_same_d	16	769	18	mask.bmp	blankscreen.bmp	wfd6.bmp	blankscreen.bmp	circle.bmp
6	real_d	real_topleft_diff_d	17	733	18	mask.bmp	blankscreen.bmp	wmd9.bmp	blankscreen.bmp	circle.bmp
6	real_d	real_topleft_same_d	18	682	23	mask.bmp	blankscreen.bmp	wmn6.bmp	blankscreen.bmp	square.bmp
6	real_d	real_bottomright_same_d	19	906	23	mask.bmp	blankscreen.bmp	wfn7.bmp	blankscreen.bmp	square.bmp
6	real_d	real_bottomleft_same_d	20	696	18	mask.bmp	blankscreen.bmp	wmn7.bmp	blankscreen.bmp	circle.bmp
12	practice	practice_bottomright_same	1	1442	23	mask.bmp	blankscreen.bmp	practice8.jpg	blankscreen.bmp	square.bmp
12	practice	practice_bottomright_same	2	715	18	mask.bmp	blankscreen.bmp	practice7.jpg	blankscreen.bmp	circle.bmp
12	practice	practice_topright_same	3	577	23	mask.bmp	blankscreen.bmp	practice3.jpg	blankscreen.bmp	square.bmp
12	practice	practice_bottomleft_same	4	645	23	mask.bmp	blankscreen.bmp	practice5.jpg	blankscreen.bmp	square.bmp
12	practice	practice_topright_diff	5	606	23	mask.bmp	blankscreen.bmp	practice10.jpg	blankscreen.bmp	square.bmp
12	practice	practice_topleft_same	6	633	18	mask.bmp	blankscreen.bmp	practice2.jpg	blankscreen.bmp	circle.bmp
12	practice	practice_bottomleft_diff	7	754	18	mask.bmp	blankscreen.bmp	practice11.jpg	blankscreen.bmp	circle.bmp
12	practice	practice_bottomleft_same	8	615	23	mask.bmp	blankscreen.bmp	practice6.jpg	blankscreen.bmp	square.bmp
12	practice	practice_topright_same	9	417	18	mask.bmp	blankscreen.bmp	practice4.jpg	blankscreen.bmp	circle.bmp
12	practice	practice_topleft_diff	10	707	23	mask.bmp	blankscreen.bmp	practice9.jpg	blankscreen.bmp	square.bmp
12	practice	practice_bottomright_diff	11	658	18	mask.bmp	blankscreen.bmp	practice12.jpg	blankscreen.bmp	circle.bmp
12	practice	practice_topleft_same	12	642	23	mask.bmp	blankscreen.bmp	practice1.jpg	blankscreen.bmp	square.bmp
12	real_a	real_topright_same_a	1	749	23	mask.bmp	blankscreen.bmp	wfd5.bmp	blankscreen.bmp	square.bmp
12	real_a	real_topright_diff_a	2	722	23	mask.bmp	blankscreen.bmp	wmn1.bmp	blankscreen.bmp	square.bmp
12	real_a	real_topleft_diff_a	3	664	18	mask.bmp	blankscreen.bmp	wmd2.bmp	blankscreen.bmp	circle.bmp
12	real_a	real_topleft_diff_a	4	792	18	mask.bmp	blankscreen.bmp	wfn3.bmp	blankscreen.bmp	circle.bmp
12	real_a	real_bottomleft_diff_a	5	692	23	mask.bmp	blankscreen.bmp	wfd3.bmp	blankscreen.bmp	square.bmp
12	real_a	real_bottomright_diff_a	6	763	23	mask.bmp	blankscreen.bmp	wfn2.bmp	blankscreen.bmp	square.bmp
12	real_a	real_topright_diff_a	7	728	23	mask.bmp	blankscreen.bmp	wfd2.bmp	blankscreen.bmp	square.bmp
12	real_a	real_bottomleft_diff_a	8	1262	23	mask.bmp	blankscreen.bmp	wfn1.bmp	blankscreen.bmp	square.bmp
12	real_a	real_bottomright_same_a	9	783	18	mask.bmp	blankscreen.bmp	wmn5.bmp	blankscreen.bmp	circle.bmp
12	real_a	real_bottomright_same_a	10	666	23	mask.bmp	blankscreen.bmp	wmd5.bmp	blankscreen.bmp	circle.bmp
12	real_a	real_bottomleft_same_a	11	722	18	mask.bmp	blankscreen.bmp	wfn5.bmp	blankscreen.bmp	circle.bmp
12	real_a	real_topright_diff_a	12	752	18	mask.bmp	blankscreen.bmp	wmd3.bmp	blankscreen.bmp	circle.bmp
12	real_a	real_bottomleft_diff_a	13	917	18	mask.bmp	blankscreen.bmp	wmn2.bmp	blankscreen.bmp	circle.bmp
12	real_a	real_bottomright_diff_a	14	683	23	mask.bmp	blankscreen.bmp	wmn3.bmp	blankscreen.bmp	square.bmp
12	real_a	real_topright_same_a	15	1098	23	mask.bmp	blankscreen.bmp	wmn4.bmp	blankscreen.bmp	square.bmp
12	real_a	real_bottomright_diff_a	16	841	23	mask.bmp	blankscreen.bmp	wmd1.bmp	blankscreen.bmp	square.bmp
12	real_a	real_bottomleft_same_a	17	1026	18	mask.bmp	blankscreen.bmp	wmd4.bmp	blankscreen.bmp	circle.bmp
12	real_a	real_topleft_same_a	18	844	18	mask.bmp	blankscreen.bmp	wfd4.bmp	blankscreen.bmp	circle.bmp
12	real_a	real_topleft_same_a	19	733	18	mask.bmp	blankscreen.bmp	wfn4.bmp	blankscreen.bmp	circle.bmp
12	real_a	real_topleft_diff_a	20	699	18	mask.bmp	blankscreen.bmp	wfd1.bmp	blankscreen.bmp	circle.bmp
12	real_b	real_topleft_same_b	1	703	18	mask.bmp	blankscreen.bmp	wmn9.bmp	blankscreen.bmp	circle.bmp
12	real_b	real_bottomright_diff_b	2	765	23	mask.bmp	blankscreen.bmp	wfd6.bmp	blankscreen.bmp	square.bmp
12	real_b	real_bottomleft_diff_b	3	1489	18	mask.bmp	blankscreen.bmp	wmn8.bmp	blankscreen.bmp	square.bmp
12	real_b	real_bottomright_same_b	4	689	23	mask.bmp	blankscreen.bmp	wfd10.bmp	blankscreen.bmp	square.bmp
12	real_b	real_bottomright_diff_b	5	800	23	mask.bmp	blankscreen.bmp	wfn8.bmp	blankscreen.bmp	square.bmp
12	real_b	real_topright_diff_b	6	699	23	mask.bmp	blankscreen.bmp	wfd8.bmp	blankscreen.bmp	square.bmp
12	real_b	real_topleft_diff_b	7	1009	23	mask.bmp	blankscreen.bmp	wfd7.bmp	blankscreen.bmp	square.bmp
12	real_b	real_topleft_diff_b	8	652	18	mask.bmp	blankscreen.bmp	wmn6.bmp	blankscreen.bmp	circle.bmp
12	real_b	real_bottomleft_diff_b	9	1157	18	mask.bmp	blankscreen.bmp	wmd6.bmp	blankscreen.bmp	circle.bmp
12	real_b	real_topleft_diff_b	10	449	23	mask.bmp	blankscreen.bmp	wmd8.bmp	blankscreen.bmp	square.bmp
12	real_b	real_bottomleft_same_b	11	546	23	mask.bmp	blankscreen.bmp	wmd10.bmp	blankscreen.bmp	square.bmp
12	real_b	real_topright_diff_b	12	935	23	mask.bmp	blankscreen.bmp	wfn6.bmp	blankscreen.bmp	square.bmp
12	real_b	real_bottomleft_diff_b	13	653	18	mask.bmp	blankscreen.bmp	wfn7.bmp	blankscreen.bmp	circle.bmp
12	real_b	real_topright_diff_b	14	493	23	mask.bmp	blankscreen.bmp	wmn7.bmp	blankscreen.bmp	square.bmp
12	real_b	real_bottomright_same_b	15	541	18	mask.bmp	blankscreen.bmp	wfn10.bmp	blankscreen.bmp	circle.bmp
12	real_b	real_topright_same_b	16	730	18	mask.bmp	blankscreen.bmp	wmn10.bmp	blankscreen.bmp	circle.bmp
12	real_b	real_bottomright_diff_b	17	776	23	mask.bmp	blankscreen.bmp	wmd7.bmp	blankscreen.bmp	circle.bmp
12	real_b	real_topleft_same_b	18	1108	23	mask.bmp	blankscreen.bmp	wmd9.bmp	blankscreen.bmp	square.bmp
12	real_b	real_bottomleft_same_b	19	571	23	mask.bmp	blankscreen.bmp	wfd9.bmp	blankscreen.bmp	square.bmp
12	real_b	real_topright_same_b	20	847	23	mask.bmp	blankscreen.bmp	wfn9.bmp	blankscreen.bmp	square.bmp
12	real_c	real_bottomright_diff_c	1	528	23	mask.bmp	blankscreen.bmp	wmn4.bmp	blankscreen.bmp	square.bmp
12	real_c	real_topright_diff_c	2	934	23	mask.bmp	blankscreen.bmp	wmn3.bmp	blankscreen.bmp	square.bmp
12	real_c	real_topright_diff_c	3	587	18	mask.bmp	blankscreen.bmp	wfn5.bmp	blankscreen.bmp	circle.bmp
12	real_c	real_topright_same_c	4	647	18	mask.bmp	blankscreen.bmp	wfn2.bmp	blankscreen.bmp	circle.bmp
12	real_c	real_topleft_diff_c	5	375	23	mask.bmp	blankscreen.bmp	wmn5.bmp	blankscreen.bmp	square.bmp
12	real_c	real_bottomleft_same_c	6	1251	23	mask.bmp	blankscreen.bmp	wmn1.bmp	blankscreen.bmp	square.bmp
12	real_c	real_bottomright_diff_c	7	740	18	mask.bmp	blankscreen.bmp	wfd5.bmp	blankscreen.bmp	circle.bmp
12	real_c	real_topleft_same_c	8	937	23	mask.bmp	blankscreen.bmp	wfn1.bmp	blankscreen.bmp	square.bmp
12	real_c	real_bottomright_diff_c	9	919	23	mask.bmp	blankscreen.bmp	wmd3.bmp	blankscreen.bmp	square.bmp
12	real_c	real_topright_same_c	10	949	18	mask.bmp	blankscreen.bmp	wmd1.bmp	blankscreen.bmp	circle.bmp
12	real_c	real_bottomright_same_c	11	873	23	mask.bmp	blankscreen.bmp	wmn2.bmp	blankscreen.bmp	square.bmp
12	real_c	real_bottomleft_diff_c	12	825	18	mask.bmp	blankscreen.bmp	wmd5.bmp	blankscreen.bmp	circle.bmp
12	real_c	real_bottomleft_same_c	13	963	23	mask.bmp	blankscreen.bmp	wfd2.bmp	blankscreen.bmp	square.bmp
12	real_c	real_topleft_diff_c	14	823	18	mask.bmp	blankscreen.bmp	wfn4.bmp	blankscreen.bmp	circle.bmp
12	real_c	real_topright_diff_c	15	1545	18	mask.bmp	blankscreen.bmp	wmd4.bmp	blankscreen.bmp	circle.bmp
12	real_c	real_topleft_same_c	16	1039	18	mask.bmp	blankscreen.bmp	wfd1.bmp	blankscreen.bmp	circle.bmp
12	real_c	real_bottomleft_diff_c	17	744	23	mask.bmp	blankscreen.bmp	wfn3.bmp	blankscreen.bmp	square.bmp
12	real_c	real_topleft_diff_c	18	838	18	mask.bmp	blankscreen.bmp	wfd3.bmp	blankscreen.bmp	circle.bmp
12	real_c	real_bottomright_same_c	19	791	18	mask.bmp	blankscreen.bmp	wmd2.bmp	blankscreen.bmp	circle.bmp
12	real_c	real_bottomleft_diff_c	20	818	18	mask.bmp	blankscreen.bmp	wfd4.bmp	blankscreen.bmp	circle.bmp
12	real_d	real_topright_diff_d	1	824	18	mask.bmp	blankscreen.bmp	wfd9.bmp	blankscreen.bmp	circle.bmp
12	real_d	real_bottomright_diff_d	2	858	18	mask.bmp	blankscreen.bmp	wmn10.bmp	blankscreen.bmp	circle.bmp
12	real_d	real_bottomleft_same_d	3	619	23	mask.bmp	blankscreen.bmp	wfn6.bmp	blankscreen.bmp	square.bmp
12	real_d	real_bottomleft_same_d	4	613	23	mask.bmp	blankscreen.bmp	wmn7.bmp	blankscreen.bmp	square.bmp
12	real_d	real_bottomright_same_d	5	567	23	mask.bmp	blankscreen.bmp	wfn7.bmp	blankscreen.bmp	square.bmp
12	real_d	real_bottomright_same_d	6	387	23	mask.bmp	blankscreen.bmp	wfd7.bmp	blankscreen.bmp	square.bmp
12	real_d	real_bottomleft_diff_d	7	455	18	mask.bmp	blankscreen.bmp	wmd8.bmp	blankscreen.bmp	circle.bmp
12	real_d	real_topleft_diff_d	8	943	23	mask.bmp	blankscreen.bmp	wmd9.bmp	blankscreen.bmp	circle.bmp
12	real_d	real_topleft_diff_d	9	1461	18	mask.bmp	blankscreen.bmp	wmn8.bmp	blankscreen.bmp	circle.bmp
12	real_d	real_topright_same_d	10	2141	18	mask.bmp	blankscreen.bmp	wfd6.bmp	blankscreen.bmp	circle.bmp
12	real_d	real_topright_same_d	11	555	23	mask.bmp	blankscreen.bmp	wmd7.bmp	blankscreen.bmp	square.bmp
12	real_d	real_bottomright_diff_d	12	928	23	mask.bmp	blankscreen.bmp	wfn9.bmp	blankscreen.bmp	square.bmp
12	real_d	real_bottomright_diff_d	13	1109	23	mask.bmp	blankscreen.bmp	wfd8.bmp	blankscreen.bmp	square.bmp
12	real_d	real_topleft_same_d	14	1012	23	mask.bmp	blankscreen.bmp	wmd6.bmp	blankscreen.bmp	square.bmp
12	real_d	real_topleft_diff_d	15	607	23	mask.bmp	blankscreen.bmp	wfn10.bmp	blankscreen.bmp	square.bmp
12	real_d	real_bottomleft_diff_d	16	410	18	mask.bmp	blankscreen.bmp	wfd10.bmp	blankscreen.bmp	circle.bmp
12	real_d	real_topleft_same_d	17	852	23	mask.bmp	blankscreen.bmp	wmn6.bmp	blankscreen.bmp	square.bmp
12	real_d	real_topright_diff_d	18	757	23	mask.bmp	blankscreen.bmp	wmd10.bmp	blankscreen.bmp	square.bmp
12	real_d	real_topright_diff_d	19	433	18	mask.bmp	blankscreen.bmp	wfn8.bmp	blankscreen.bmp	circle.bmp
12	real_d	real_bottomleft_diff_d	20	611	18	mask.bmp	blankscreen.bmp	wmn9.bmp	blankscreen.bmp	circle.bmp
15	practice	practice_topright_same	1	1628	18	mask.bmp	blankscreen.bmp	practice3.jpg	blankscreen.bmp	circle.bmp
15	practice	practice_bottomleft_same	2	2102	18	mask.bmp	blankscreen.bmp	practice6.jpg	blankscreen.bmp	circle.bmp
15	practice	practice_bottomright_same	3	573	23	mask.bmp	blankscreen.bmp	practice8.jpg	blankscreen.bmp	square.bmp
15	practice	practice_topleft_same	4	1529	23	mask.bmp	blankscreen.bmp	practice2.jpg	blankscreen.bmp	square.bmp
15	practice	practice_bottomright_diff	5	863	18	mask.bmp	blankscreen.bmp	practice12.jpg	blankscreen.bmp	circle.bmp
15	practice	practice_topright_same	6	847	18	mask.bmp	blankscreen.bmp	practice4.jpg	blankscreen.bmp	circle.bmp
15	practice	practice_bottomleft_same	7	776	23	mask.bmp	blankscreen.bmp	practice5.jpg	blankscreen.bmp	square.bmp
15	practice	practice_bottomright_same	8	972	18	mask.bmp	blankscreen.bmp	practice7.jpg	blankscreen.bmp	circle.bmp
15	practice	practice_topleft_diff	9	1168	23	mask.bmp	blankscreen.bmp	practice9.jpg	blankscreen.bmp	square.bmp
15	practice	practice_topright_diff	10	1284	23	mask.bmp	blankscreen.bmp	practice10.jpg	blankscreen.bmp	square.bmp
15	practice	practice_bottomleft_diff	11	795	23	mask.bmp	blankscreen.bmp	practice11.jpg	blankscreen.bmp	square.bmp
15	practice	practice_topleft_same	12	1543	23	mask.bmp	blankscreen.bmp	practice1.jpg	blankscreen.bmp	square.bmp
15	real_a	real_bottomright_diff_a	1	1111	18	mask.bmp	blankscreen.bmp	wmd1.bmp	blankscreen.bmp	circle.bmp
15	real_a	real_bottomleft_diff_a	2	950	23	mask.bmp	blankscreen.bmp	wfd3.bmp	blankscreen.bmp	square.bmp
15	real_a	real_bottomleft_diff_a	3	2315	18	mask.bmp	blankscreen.bmp	wmn2.bmp	blankscreen.bmp	circle.bmp
15	real_a	real_bottomright_same_a	4	1193	18	mask.bmp	blankscreen.bmp	wmd5.bmp	blankscreen.bmp	circle.bmp
15	real_a	real_topright_diff_a	5	1060	23	mask.bmp	blankscreen.bmp	wmd3.bmp	blankscreen.bmp	square.bmp
15	real_a	real_topleft_diff_a	6	1797	23	mask.bmp	blankscreen.bmp	wfd1.bmp	blankscreen.bmp	square.bmp
15	real_a	real_bottomright_diff_a	7	840	23	mask.bmp	blankscreen.bmp	wmn3.bmp	blankscreen.bmp	square.bmp
15	real_a	real_topleft_same_a	8	953	18	mask.bmp	blankscreen.bmp	wfd4.bmp	blankscreen.bmp	circle.bmp
15	real_a	real_bottomleft_same_a	9	1478	18	mask.bmp	blankscreen.bmp	wmd4.bmp	blankscreen.bmp	circle.bmp
15	real_a	real_bottomleft_diff_a	10	798	23	mask.bmp	blankscreen.bmp	wfn1.bmp	blankscreen.bmp	square.bmp
15	real_a	real_bottomleft_same_a	11	776	23	mask.bmp	blankscreen.bmp	wfn5.bmp	blankscreen.bmp	square.bmp
15	real_a	real_topright_same_a	12	852	18	mask.bmp	blankscreen.bmp	wfd5.bmp	blankscreen.bmp	circle.bmp
15	real_a	real_topright_diff_a	13	981	23	mask.bmp	blankscreen.bmp	wfd2.bmp	blankscreen.bmp	square.bmp
15	real_a	real_topleft_same_a	14	1600	23	mask.bmp	blankscreen.bmp	wfn4.bmp	blankscreen.bmp	square.bmp
15	real_a	real_topright_same_a	15	1411	23	mask.bmp	blankscreen.bmp	wmn4.bmp	blankscreen.bmp	square.bmp
15	real_a	real_bottomright_diff_a	16	742	23	mask.bmp	blankscreen.bmp	wfn2.bmp	blankscreen.bmp	square.bmp
15	real_a	real_topleft_diff_a	17	859	18	mask.bmp	blankscreen.bmp	wfn3.bmp	blankscreen.bmp	circle.bmp
15	real_a	real_topright_diff_a	18	1700	18	mask.bmp	blankscreen.bmp	wmn1.bmp	blankscreen.bmp	circle.bmp
15	real_a	real_topleft_diff_a	19	842	18	mask.bmp	blankscreen.bmp	wmd2.bmp	blankscreen.bmp	circle.bmp
15	real_a	real_bottomright_same_a	20	780	18	mask.bmp	blankscreen.bmp	wmn5.bmp	blankscreen.bmp	circle.bmp
15	real_b	real_topleft_same_b	1	1022	23	mask.bmp	blankscreen.bmp	wmn9.bmp	blankscreen.bmp	square.bmp
15	real_b	real_topright_diff_b	2	560	18	mask.bmp	blankscreen.bmp	wmn7.bmp	blankscreen.bmp	circle.bmp
15	real_b	real_bottomleft_same_b	3	605	23	mask.bmp	blankscreen.bmp	wfd9.bmp	blankscreen.bmp	square.bmp
15	real_b	real_bottomright_same_b	4	600	18	mask.bmp	blankscreen.bmp	wfd10.bmp	blankscreen.bmp	circle.bmp
15	real_b	real_bottomright_same_b	5	602	23	mask.bmp	blankscreen.bmp	wfn10.bmp	blankscreen.bmp	square.bmp
15	real_b	real_topleft_diff_b	6	725	23	mask.bmp	blankscreen.bmp	wmd8.bmp	blankscreen.bmp	square.bmp
15	real_b	real_topright_same_b	7	683	18	mask.bmp	blankscreen.bmp	wfn9.bmp	blankscreen.bmp	circle.bmp
15	real_b	real_bottomright_diff_b	8	690	23	mask.bmp	blankscreen.bmp	wfd6.bmp	blankscreen.bmp	square.bmp
15	real_b	real_bottomleft_diff_b	9	722	18	mask.bmp	blankscreen.bmp	wfn7.bmp	blankscreen.bmp	circle.bmp
15	real_b	real_bottomleft_same_b	10	688	18	mask.bmp	blankscreen.bmp	wmd10.bmp	blankscreen.bmp	circle.bmp
15	real_b	real_bottomright_diff_b	11	567	23	mask.bmp	blankscreen.bmp	wfn8.bmp	blankscreen.bmp	square.bmp
15	real_b	real_topleft_same_b	12	691	18	mask.bmp	blankscreen.bmp	wmd9.bmp	blankscreen.bmp	circle.bmp
15	real_b	real_bottomright_diff_b	13	562	18	mask.bmp	blankscreen.bmp	wmd7.bmp	blankscreen.bmp	circle.bmp
15	real_b	real_topleft_diff_b	14	1119	18	mask.bmp	blankscreen.bmp	wmn6.bmp	blankscreen.bmp	circle.bmp
15	real_b	real_bottomleft_diff_b	15	701	18	mask.bmp	blankscreen.bmp	wmn8.bmp	blankscreen.bmp	circle.bmp
15	real_b	real_bottomleft_diff_b	16	660	18	mask.bmp	blankscreen.bmp	wmd6.bmp	blankscreen.bmp	circle.bmp
15	real_b	real_topright_diff_b	17	932	18	mask.bmp	blankscreen.bmp	wfn6.bmp	blankscreen.bmp	circle.bmp
15	real_b	real_topright_diff_b	18	634	18	mask.bmp	blankscreen.bmp	wfd8.bmp	blankscreen.bmp	circle.bmp
15	real_b	real_topleft_diff_b	19	531	18	mask.bmp	blankscreen.bmp	wfd7.bmp	blankscreen.bmp	circle.bmp
15	real_b	real_topright_same_b	20	608	23	mask.bmp	blankscreen.bmp	wmn10.bmp	blankscreen.bmp	square.bmp
15	real_c	real_bottomright_same_c	1	1547	18	mask.bmp	blankscreen.bmp	wmn2.bmp	blankscreen.bmp	circle.bmp
15	real_c	real_bottomright_diff_c	2	528	23	mask.bmp	blankscreen.bmp	wfd5.bmp	blankscreen.bmp	square.bmp
15	real_c	real_topright_same_c	3	486	23	mask.bmp	blankscreen.bmp	wmd1.bmp	blankscreen.bmp	square.bmp
15	real_c	real_bottomleft_diff_c	4	509	23	mask.bmp	blankscreen.bmp	wfn3.bmp	blankscreen.bmp	square.bmp
15	real_c	real_topright_same_c	5	556	18	mask.bmp	blankscreen.bmp	wfn2.bmp	blankscreen.bmp	circle.bmp
15	real_c	real_topleft_same_c	6	720	23	mask.bmp	blankscreen.bmp	wfd1.bmp	blankscreen.bmp	square.bmp
15	real_c	real_bottomleft_same_c	7	630	18	mask.bmp	blankscreen.bmp	wfd2.bmp	blankscreen.bmp	circle.bmp
15	real_c	real_topleft_diff_c	8	664	18	mask.bmp	blankscreen.bmp	wfd3.bmp	blankscreen.bmp	circle.bmp
15	real_c	real_topright_diff_c	9	728	23	mask.bmp	blankscreen.bmp	wmd4.bmp	blankscreen.bmp	square.bmp
15	real_c	real_topleft_diff_c	10	718	18	mask.bmp	blankscreen.bmp	wfn4.bmp	blankscreen.bmp	circle.bmp
15	real_c	real_topright_diff_c	11	508	18	mask.bmp	blankscreen.bmp	wmn3.bmp	blankscreen.bmp	circle.bmp
15	real_c	real_topleft_diff_c	12	618	18	mask.bmp	blankscreen.bmp	wmn5.bmp	blankscreen.bmp	circle.bmp
15	real_c	real_topleft_same_c	13	844	18	mask.bmp	blankscreen.bmp	wfn1.bmp	blankscreen.bmp	circle.bmp
15	real_c	real_bottomleft_same_c	14	462	18	mask.bmp	blankscreen.bmp	wmn1.bmp	blankscreen.bmp	circle.bmp
15	real_c	real_bottomleft_diff_c	15	726	23	mask.bmp	blankscreen.bmp	wmd5.bmp	blankscreen.bmp	square.bmp
15	real_c	real_bottomright_same_c	16	892	23	mask.bmp	blankscreen.bmp	wmd2.bmp	blankscreen.bmp	square.bmp
15	real_c	real_bottomright_diff_c	17	1284	23	mask.bmp	blankscreen.bmp	wmn4.bmp	blankscreen.bmp	square.bmp
15	real_c	real_topright_diff_c	18	643	23	mask.bmp	blankscreen.bmp	wfn5.bmp	blankscreen.bmp	square.bmp
15	real_c	real_bottomright_diff_c	19	764	23	mask.bmp	blankscreen.bmp	wmd3.bmp	blankscreen.bmp	square.bmp
15	real_c	real_bottomleft_diff_c	20	776	18	mask.bmp	blankscreen.bmp	wfd4.bmp	blankscreen.bmp	circle.bmp
15	real_d	real_bottomright_diff_d	1	964	23	mask.bmp	blankscreen.bmp	wfn9.bmp	blankscreen.bmp	square.bmp
15	real_d	real_bottomright_diff_d	2	376	18	mask.bmp	blankscreen.bmp	wmn10.bmp	blankscreen.bmp	circle.bmp
15	real_d	real_bottomleft_diff_d	3	540	18	mask.bmp	blankscreen.bmp	wmd8.bmp	blankscreen.bmp	circle.bmp
15	real_d	real_bottomleft_diff_d	4	402	23	mask.bmp	blankscreen.bmp	wmn9.bmp	blankscreen.bmp	square.bmp
15	real_d	real_topright_diff_d	5	564	23	mask.bmp	blankscreen.bmp	wfn8.bmp	blankscreen.bmp	square.bmp
15	real_d	real_bottomright_diff_d	6	464	18	mask.bmp	blankscreen.bmp	wfd8.bmp	blankscreen.bmp	circle.bmp
15	real_d	real_topleft_diff_d	7	456	23	mask.bmp	blankscreen.bmp	wfn10.bmp	blankscreen.bmp	square.bmp
15	real_d	real_topright_diff_d	8	609	23	mask.bmp	blankscreen.bmp	wfd9.bmp	blankscreen.bmp	square.bmp
15	real_d	real_bottomright_same_d	9	572	23	mask.bmp	blankscreen.bmp	wfd7.bmp	blankscreen.bmp	square.bmp
15	real_d	real_bottomright_same_d	10	832	18	mask.bmp	blankscreen.bmp	wfn7.bmp	blankscreen.bmp	circle.bmp
15	real_d	real_topright_same_d	11	657	23	mask.bmp	blankscreen.bmp	wfd6.bmp	blankscreen.bmp	square.bmp
15	real_d	real_bottomleft_same_d	12	754	23	mask.bmp	blankscreen.bmp	wfn6.bmp	blankscreen.bmp	square.bmp
15	real_d	real_topleft_diff_d	13	814	23	mask.bmp	blankscreen.bmp	wmn8.bmp	blankscreen.bmp	square.bmp
15	real_d	real_topright_same_d	14	544	23	mask.bmp	blankscreen.bmp	wmd7.bmp	blankscreen.bmp	square.bmp
15	real_d	real_bottomleft_diff_d	15	694	23	mask.bmp	blankscreen.bmp	wfd10.bmp	blankscreen.bmp	square.bmp
15	real_d	real_topright_diff_d	16	493	23	mask.bmp	blankscreen.bmp	wmd10.bmp	blankscreen.bmp	square.bmp
15	real_d	real_bottomleft_same_d	17	612	18	mask.bmp	blankscreen.bmp	wmn7.bmp	blankscreen.bmp	circle.bmp
15	real_d	real_topleft_diff_d	18	695	18	mask.bmp	blankscreen.bmp	wmd9.bmp	blankscreen.bmp	circle.bmp
15	real_d	real_topleft_same_d	19	702	23	mask.bmp	blankscreen.bmp	wmn6.bmp	blankscreen.bmp	square.bmp
15	real_d	real_topleft_same_d	20	685	23	mask.bmp	blankscreen.bmp	wmd6.bmp	blankscreen.bmp	square.bmp
19	practice	practice_topright_same	1	2793	23	mask.bmp	blankscreen.bmp	practice3.jpg	blankscreen.bmp	square.bmp
19	practice	practice_topright_diff	2	1236	23	mask.bmp	blankscreen.bmp	practice10.jpg	blankscreen.bmp	square.bmp
19	practice	practice_bottomleft_diff	3	1229	18	mask.bmp	blankscreen.bmp	practice11.jpg	blankscreen.bmp	circle.bmp
19	practice	practice_bottomleft_same	4	1775	23	mask.bmp	blankscreen.bmp	practice6.jpg	blankscreen.bmp	square.bmp
19	practice	practice_topleft_diff	5	1171	18	mask.bmp	blankscreen.bmp	practice9.jpg	blankscreen.bmp	circle.bmp
19	practice	practice_bottomright_diff	6	1847	18	mask.bmp	blankscreen.bmp	practice12.jpg	blankscreen.bmp	circle.bmp
19	practice	practice_bottomright_same	7	824	18	mask.bmp	blankscreen.bmp	practice7.jpg	blankscreen.bmp	circle.bmp
19	practice	practice_bottomleft_same	8	714	18	mask.bmp	blankscreen.bmp	practice5.jpg	blankscreen.bmp	circle.bmp
19	practice	practice_topleft_same	9	640	23	mask.bmp	blankscreen.bmp	practice2.jpg	blankscreen.bmp	square.bmp
19	practice	practice_topright_same	10	889	23	mask.bmp	blankscreen.bmp	practice4.jpg	blankscreen.bmp	square.bmp
19	practice	practice_bottomright_same	11	1080	23	mask.bmp	blankscreen.bmp	practice8.jpg	blankscreen.bmp	square.bmp
19	practice	practice_topleft_same	12	608	18	mask.bmp	blankscreen.bmp	practice1.jpg	blankscreen.bmp	circle.bmp
19	real_a	real_topright_diff_a	1	1109	23	mask.bmp	blankscreen.bmp	wfd2.bmp	blankscreen.bmp	square.bmp
19	real_a	real_bottomright_same_a	2	716	23	mask.bmp	blankscreen.bmp	wmd5.bmp	blankscreen.bmp	square.bmp
19	real_a	real_bottomright_diff_a	3	818	18	mask.bmp	blankscreen.bmp	wmd1.bmp	blankscreen.bmp	circle.bmp
19	real_a	real_bottomleft_diff_a	4	1340	18	mask.bmp	blankscreen.bmp	wfn1.bmp	blankscreen.bmp	circle.bmp
19	real_a	real_bottomleft_same_a	5	2697	18	mask.bmp	blankscreen.bmp	wmd4.bmp	blankscreen.bmp	circle.bmp
19	real_a	real_bottomright_diff_a	6	1088	23	mask.bmp	blankscreen.bmp	wfn2.bmp	blankscreen.bmp	square.bmp
19	real_a	real_topright_same_a	7	1223	23	mask.bmp	blankscreen.bmp	wfd5.bmp	blankscreen.bmp	square.bmp
19	real_a	real_topleft_diff_a	8	1001	23	mask.bmp	blankscreen.bmp	wmd2.bmp	blankscreen.bmp	square.bmp
19	real_a	real_topright_diff_a	9	1028	18	mask.bmp	blankscreen.bmp	wmd3.bmp	blankscreen.bmp	circle.bmp
19	real_a	real_topright_diff_a	10	694	18	mask.bmp	blankscreen.bmp	wmn1.bmp	blankscreen.bmp	square.bmp
19	real_a	real_topleft_same_a	11	1093	18	mask.bmp	blankscreen.bmp	wfn4.bmp	blankscreen.bmp	circle.bmp
19	real_a	real_topright_same_a	12	717	23	mask.bmp	blankscreen.bmp	wmn4.bmp	blankscreen.bmp	circle.bmp
19	real_a	real_topleft_diff_a	13	3203	23	mask.bmp	blankscreen.bmp	wfd1.bmp	blankscreen.bmp	square.bmp
19	real_a	real_topleft_same_a	14	853	23	mask.bmp	blankscreen.bmp	wfd4.bmp	blankscreen.bmp	square.bmp
19	real_a	real_bottomright_diff_a	15	1230	18	mask.bmp	blankscreen.bmp	wmn3.bmp	blankscreen.bmp	circle.bmp
19	real_a	real_bottomleft_same_a	16	720	18	mask.bmp	blankscreen.bmp	wfn5.bmp	blankscreen.bmp	circle.bmp
19	real_a	real_topleft_diff_a	17	558	23	mask.bmp	blankscreen.bmp	wfn3.bmp	blankscreen.bmp	square.bmp
19	real_a	real_bottomleft_diff_a	18	1043	23	mask.bmp	blankscreen.bmp	wfd3.bmp	blankscreen.bmp	square.bmp
19	real_a	real_bottomleft_diff_a	19	700	18	mask.bmp	blankscreen.bmp	wmn2.bmp	blankscreen.bmp	circle.bmp
19	real_a	real_bottomright_same_a	20	587	23	mask.bmp	blankscreen.bmp	wmn5.bmp	blankscreen.bmp	square.bmp
19	real_b	real_bottomleft_diff_b	1	1012	18	mask.bmp	blankscreen.bmp	wfn7.bmp	blankscreen.bmp	circle.bmp
19	real_b	real_bottomright_diff_b	2	751	23	mask.bmp	blankscreen.bmp	wfn8.bmp	blankscreen.bmp	square.bmp
19	real_b	real_bottomright_same_b	3	1323	18	mask.bmp	blankscreen.bmp	wfd10.bmp	blankscreen.bmp	circle.bmp
19	real_b	real_bottomright_diff_b	4	593	23	mask.bmp	blankscreen.bmp	wmd7.bmp	blankscreen.bmp	square.bmp
19	real_b	real_bottomleft_diff_b	5	989	23	mask.bmp	blankscreen.bmp	wmn8.bmp	blankscreen.bmp	square.bmp
19	real_b	real_topright_same_b	6	1136	18	mask.bmp	blankscreen.bmp	wmn10.bmp	blankscreen.bmp	circle.bmp
19	real_b	real_topright_diff_b	7	1117	23	mask.bmp	blankscreen.bmp	wfd8.bmp	blankscreen.bmp	square.bmp
19	real_b	real_topright_diff_b	8	971	18	mask.bmp	blankscreen.bmp	wfn6.bmp	blankscreen.bmp	circle.bmp
19	real_b	real_bottomright_same_b	9	600	23	mask.bmp	blankscreen.bmp	wfn10.bmp	blankscreen.bmp	square.bmp
19	real_b	real_topleft_same_b	10	1050	23	mask.bmp	blankscreen.bmp	wmn9.bmp	blankscreen.bmp	square.bmp
19	real_b	real_topleft_same_b	11	771	23	mask.bmp	blankscreen.bmp	wmd9.bmp	blankscreen.bmp	circle.bmp
19	real_b	real_topleft_diff_b	12	799	18	mask.bmp	blankscreen.bmp	wmd8.bmp	blankscreen.bmp	circle.bmp
19	real_b	real_bottomright_diff_b	13	1122	23	mask.bmp	blankscreen.bmp	wfd6.bmp	blankscreen.bmp	square.bmp
19	real_b	real_topleft_diff_b	14	847	18	mask.bmp	blankscreen.bmp	wmn6.bmp	blankscreen.bmp	circle.bmp
19	real_b	real_topleft_diff_b	15	1160	23	mask.bmp	blankscreen.bmp	wfd7.bmp	blankscreen.bmp	square.bmp
19	real_b	real_topright_same_b	16	845	23	mask.bmp	blankscreen.bmp	wfn9.bmp	blankscreen.bmp	square.bmp
19	real_b	real_bottomleft_diff_b	17	1750	23	mask.bmp	blankscreen.bmp	wmd6.bmp	blankscreen.bmp	square.bmp
19	real_b	real_bottomleft_same_b	18	1075	23	mask.bmp	blankscreen.bmp	wmd10.bmp	blankscreen.bmp	square.bmp
19	real_b	real_topright_diff_b	19	723	23	mask.bmp	blankscreen.bmp	wmn7.bmp	blankscreen.bmp	square.bmp
19	real_b	real_bottomleft_same_b	20	961	18	mask.bmp	blankscreen.bmp	wfd9.bmp	blankscreen.bmp	circle.bmp
19	real_c	real_bottomleft_same_c	1	1084	23	mask.bmp	blankscreen.bmp	wfd2.bmp	blankscreen.bmp	square.bmp
19	real_c	real_bottomright_diff_c	2	787	23	mask.bmp	blankscreen.bmp	wmn4.bmp	blankscreen.bmp	square.bmp
19	real_c	real_bottomright_same_c	3	943	23	mask.bmp	blankscreen.bmp	wmd2.bmp	blankscreen.bmp	square.bmp
19	real_c	real_topleft_diff_c	4	892	23	mask.bmp	blankscreen.bmp	wmn5.bmp	blankscreen.bmp	circle.bmp
19	real_c	real_topleft_diff_c	5	2339	23	mask.bmp	blankscreen.bmp	wfn4.bmp	blankscreen.bmp	square.bmp
19	real_c	real_bottomleft_diff_c	6	1457	18	mask.bmp	blankscreen.bmp	wfd4.bmp	blankscreen.bmp	circle.bmp
19	real_c	real_bottomleft_diff_c	7	898	18	mask.bmp	blankscreen.bmp	wmd5.bmp	blankscreen.bmp	circle.bmp
19	real_c	real_topleft_same_c	8	968	23	mask.bmp	blankscreen.bmp	wfn1.bmp	blankscreen.bmp	square.bmp
19	real_c	real_topleft_same_c	9	948	18	mask.bmp	blankscreen.bmp	wfd1.bmp	blankscreen.bmp	circle.bmp
19	real_c	real_topright_diff_c	10	905	18	mask.bmp	blankscreen.bmp	wmd4.bmp	blankscreen.bmp	circle.bmp
19	real_c	real_topleft_diff_c	11	680	18	mask.bmp	blankscreen.bmp	wfd3.bmp	blankscreen.bmp	circle.bmp
19	real_c	real_bottomleft_same_c	12	784	23	mask.bmp	blankscreen.bmp	wmn1.bmp	blankscreen.bmp	square.bmp
19	real_c	real_bottomleft_diff_c	13	1859	23	mask.bmp	blankscreen.bmp	wfn3.bmp	blankscreen.bmp	square.bmp
19	real_c	real_bottomright_same_c	14	676	23	mask.bmp	blankscreen.bmp	wmn2.bmp	blankscreen.bmp	square.bmp
19	real_c	real_bottomright_diff_c	15	1451	18	mask.bmp	blankscreen.bmp	wfd5.bmp	blankscreen.bmp	circle.bmp
19	real_c	real_topright_diff_c	16	764	18	mask.bmp	blankscreen.bmp	wfn5.bmp	blankscreen.bmp	circle.bmp
19	real_c	real_topright_diff_c	17	1032	23	mask.bmp	blankscreen.bmp	wmn3.bmp	blankscreen.bmp	circle.bmp
19	real_c	real_topright_same_c	18	698	23	mask.bmp	blankscreen.bmp	wfn2.bmp	blankscreen.bmp	square.bmp
19	real_c	real_topright_same_c	19	648	18	mask.bmp	blankscreen.bmp	wmd1.bmp	blankscreen.bmp	circle.bmp
19	real_c	real_bottomright_diff_c	20	849	23	mask.bmp	blankscreen.bmp	wmd3.bmp	blankscreen.bmp	square.bmp
19	real_d	real_bottomleft_diff_d	1	866	23	mask.bmp	blankscreen.bmp	wmn9.bmp	blankscreen.bmp	square.bmp
19	real_d	real_topright_same_d	2	674	18	mask.bmp	blankscreen.bmp	wmd7.bmp	blankscreen.bmp	circle.bmp
19	real_d	real_bottomleft_same_d	3	578	23	mask.bmp	blankscreen.bmp	wmn7.bmp	blankscreen.bmp	square.bmp
19	real_d	real_bottomright_diff_d	4	718	23	mask.bmp	blankscreen.bmp	wfd8.bmp	blankscreen.bmp	square.bmp
19	real_d	real_bottomleft_diff_d	5	588	18	mask.bmp	blankscreen.bmp	wfd10.bmp	blankscreen.bmp	circle.bmp
19	real_d	real_topleft_same_d	6	840	18	mask.bmp	blankscreen.bmp	wmn6.bmp	blankscreen.bmp	circle.bmp
19	real_d	real_bottomright_same_d	7	569	18	mask.bmp	blankscreen.bmp	wfd7.bmp	blankscreen.bmp	circle.bmp
19	real_d	real_bottomright_diff_d	8	493	23	mask.bmp	blankscreen.bmp	wfn9.bmp	blankscreen.bmp	square.bmp
19	real_d	real_bottomright_same_d	9	836	18	mask.bmp	blankscreen.bmp	wfn7.bmp	blankscreen.bmp	circle.bmp
19	real_d	real_topright_diff_d	10	550	23	mask.bmp	blankscreen.bmp	wfn8.bmp	blankscreen.bmp	square.bmp
19	real_d	real_topright_same_d	11	1242	18	mask.bmp	blankscreen.bmp	wfd6.bmp	blankscreen.bmp	circle.bmp
19	real_d	real_topright_diff_d	12	708	23	mask.bmp	blankscreen.bmp	wfd9.bmp	blankscreen.bmp	square.bmp
19	real_d	real_topleft_same_d	13	1107	18	mask.bmp	blankscreen.bmp	wmd6.bmp	blankscreen.bmp	circle.bmp
19	real_d	real_bottomright_diff_d	14	785	23	mask.bmp	blankscreen.bmp	wmn10.bmp	blankscreen.bmp	square.bmp
19	real_d	real_topleft_diff_d	15	876	18	mask.bmp	blankscreen.bmp	wfn10.bmp	blankscreen.bmp	circle.bmp
19	real_d	real_topleft_diff_d	16	612	18	mask.bmp	blankscreen.bmp	wmd9.bmp	blankscreen.bmp	circle.bmp
19	real_d	real_bottomleft_diff_d	17	647	18	mask.bmp	blankscreen.bmp	wmd8.bmp	blankscreen.bmp	circle.bmp
19	real_d	real_bottomleft_same_d	18	976	23	mask.bmp	blankscreen.bmp	wfn6.bmp	blankscreen.bmp	square.bmp
19	real_d	real_topleft_diff_d	19	756	23	mask.bmp	blankscreen.bmp	wmn8.bmp	blankscreen.bmp	square.bmp
19	real_d	real_topright_diff_d	20	553	23	mask.bmp	blankscreen.bmp	wmd10.bmp	blankscreen.bmp	square.bmp
23	practice	practice_bottomright_same	1	1239	18	mask.bmp	blankscreen.bmp	practice8.jpg	blankscreen.bmp	square.bmp
23	practice	practice_bottomleft_same	2	521	23	mask.bmp	blankscreen.bmp	practice6.jpg	blankscreen.bmp	circle.bmp
23	practice	practice_bottomright_same	3	711	23	mask.bmp	blankscreen.bmp	practice7.jpg	blankscreen.bmp	square.bmp
23	practice	practice_topleft_same	4	557	23	mask.bmp	blankscreen.bmp	practice2.jpg	blankscreen.bmp	circle.bmp
23	practice	practice_bottomleft_diff	5	778	23	mask.bmp	blankscreen.bmp	practice11.jpg	blankscreen.bmp	square.bmp
23	practice	practice_topright_same	6	670	23	mask.bmp	blankscreen.bmp	practice4.jpg	blankscreen.bmp	square.bmp
23	practice	practice_topright_same	7	534	18	mask.bmp	blankscreen.bmp	practice3.jpg	blankscreen.bmp	circle.bmp
23	practice	practice_bottomright_diff	8	739	18	mask.bmp	blankscreen.bmp	practice12.jpg	blankscreen.bmp	circle.bmp
23	practice	practice_topright_diff	9	561	18	mask.bmp	blankscreen.bmp	practice10.jpg	blankscreen.bmp	circle.bmp
23	practice	practice_topleft_diff	10	781	18	mask.bmp	blankscreen.bmp	practice9.jpg	blankscreen.bmp	circle.bmp
23	practice	practice_bottomleft_same	11	649	18	mask.bmp	blankscreen.bmp	practice5.jpg	blankscreen.bmp	circle.bmp
23	practice	practice_topleft_same	12	433	18	mask.bmp	blankscreen.bmp	practice1.jpg	blankscreen.bmp	circle.bmp
23	real_a	real_bottomleft_diff_a	1	671	18	mask.bmp	blankscreen.bmp	wfn1.bmp	blankscreen.bmp	circle.bmp
23	real_a	real_topright_same_a	2	527	18	mask.bmp	blankscreen.bmp	wmn4.bmp	blankscreen.bmp	circle.bmp
23	real_a	real_bottomright_diff_a	3	693	23	mask.bmp	blankscreen.bmp	wmd1.bmp	blankscreen.bmp	square.bmp
23	real_a	real_topright_diff_a	4	716	18	mask.bmp	blankscreen.bmp	wmd3.bmp	blankscreen.bmp	circle.bmp
23	real_a	real_bottomleft_same_a	5	754	18	mask.bmp	blankscreen.bmp	wfn5.bmp	blankscreen.bmp	square.bmp
23	real_a	real_bottomleft_diff_a	6	943	18	mask.bmp	blankscreen.bmp	wfd3.bmp	blankscreen.bmp	circle.bmp
23	real_a	real_bottomright_same_a	7	724	18	mask.bmp	blankscreen.bmp	wmn5.bmp	blankscreen.bmp	circle.bmp
23	real_a	real_bottomright_diff_a	8	778	23	mask.bmp	blankscreen.bmp	wfn2.bmp	blankscreen.bmp	square.bmp
23	real_a	real_bottomright_diff_a	9	606	18	mask.bmp	blankscreen.bmp	wmn3.bmp	blankscreen.bmp	circle.bmp
23	real_a	real_topleft_same_a	10	889	23	mask.bmp	blankscreen.bmp	wfd4.bmp	blankscreen.bmp	square.bmp
23	real_a	real_bottomleft_same_a	11	672	18	mask.bmp	blankscreen.bmp	wmd4.bmp	blankscreen.bmp	circle.bmp
23	real_a	real_topright_diff_a	12	1136	18	mask.bmp	blankscreen.bmp	wfd2.bmp	blankscreen.bmp	circle.bmp
23	real_a	real_topleft_diff_a	13	661	18	mask.bmp	blankscreen.bmp	wfd1.bmp	blankscreen.bmp	circle.bmp
23	real_a	real_bottomleft_diff_a	14	670	23	mask.bmp	blankscreen.bmp	wmn2.bmp	blankscreen.bmp	square.bmp
23	real_a	real_topleft_diff_a	15	702	18	mask.bmp	blankscreen.bmp	wmd2.bmp	blankscreen.bmp	circle.bmp
23	real_a	real_topleft_diff_a	16	877	23	mask.bmp	blankscreen.bmp	wfn3.bmp	blankscreen.bmp	square.bmp
23	real_a	real_topleft_same_a	17	813	18	mask.bmp	blankscreen.bmp	wfn4.bmp	blankscreen.bmp	circle.bmp
23	real_a	real_bottomright_same_a	18	711	23	mask.bmp	blankscreen.bmp	wmd5.bmp	blankscreen.bmp	square.bmp
23	real_a	real_topright_diff_a	19	678	23	mask.bmp	blankscreen.bmp	wmn1.bmp	blankscreen.bmp	square.bmp
23	real_a	real_topright_same_a	20	582	18	mask.bmp	blankscreen.bmp	wfd5.bmp	blankscreen.bmp	circle.bmp
23	real_b	real_topleft_diff_b	1	911	23	mask.bmp	blankscreen.bmp	wmn6.bmp	blankscreen.bmp	square.bmp
23	real_b	real_topright_diff_b	2	605	18	mask.bmp	blankscreen.bmp	wfn6.bmp	blankscreen.bmp	circle.bmp
23	real_b	real_topleft_same_b	3	800	23	mask.bmp	blankscreen.bmp	wmd9.bmp	blankscreen.bmp	square.bmp
23	real_b	real_topleft_same_b	4	835	23	mask.bmp	blankscreen.bmp	wmn9.bmp	blankscreen.bmp	square.bmp
23	real_b	real_topright_same_b	5	732	18	mask.bmp	blankscreen.bmp	wmn10.bmp	blankscreen.bmp	circle.bmp
23	real_b	real_bottomleft_same_b	6	1001	23	mask.bmp	blankscreen.bmp	wfd9.bmp	blankscreen.bmp	circle.bmp
23	real_b	real_bottomright_same_b	7	708	18	mask.bmp	blankscreen.bmp	wfd10.bmp	blankscreen.bmp	circle.bmp
23	real_b	real_bottomleft_diff_b	8	811	23	mask.bmp	blankscreen.bmp	wmd6.bmp	blankscreen.bmp	square.bmp
23	real_b	real_bottomright_diff_b	9	757	18	mask.bmp	blankscreen.bmp	wmd7.bmp	blankscreen.bmp	circle.bmp
23	real_b	real_topleft_diff_b	10	954	18	mask.bmp	blankscreen.bmp	wmd8.bmp	blankscreen.bmp	circle.bmp
23	real_b	real_bottomleft_diff_b	11	735	23	mask.bmp	blankscreen.bmp	wmn8.bmp	blankscreen.bmp	square.bmp
23	real_b	real_bottomright_diff_b	12	788	18	mask.bmp	blankscreen.bmp	wfd6.bmp	blankscreen.bmp	circle.bmp
23	real_b	real_bottomleft_same_b	13	935	23	mask.bmp	blankscreen.bmp	wmd10.bmp	blankscreen.bmp	square.bmp
23	real_b	real_topright_diff_b	14	805	23	mask.bmp	blankscreen.bmp	wfd8.bmp	blankscreen.bmp	square.bmp
23	real_b	real_bottomleft_diff_b	15	759	23	mask.bmp	blankscreen.bmp	wfn7.bmp	blankscreen.bmp	square.bmp
23	real_b	real_topright_same_b	16	612	18	mask.bmp	blankscreen.bmp	wfn9.bmp	blankscreen.bmp	circle.bmp
23	real_b	real_bottomright_diff_b	17	847	23	mask.bmp	blankscreen.bmp	wfn8.bmp	blankscreen.bmp	square.bmp
23	real_b	real_topright_diff_b	18	879	18	mask.bmp	blankscreen.bmp	wmn7.bmp	blankscreen.bmp	circle.bmp
23	real_b	real_topleft_diff_b	19	983	23	mask.bmp	blankscreen.bmp	wfd7.bmp	blankscreen.bmp	square.bmp
23	real_b	real_bottomright_same_b	20	787	18	mask.bmp	blankscreen.bmp	wfn10.bmp	blankscreen.bmp	circle.bmp
23	real_c	real_topleft_diff_c	1	979	18	mask.bmp	blankscreen.bmp	wfn4.bmp	blankscreen.bmp	circle.bmp
23	real_c	real_topright_diff_c	2	1055	18	mask.bmp	blankscreen.bmp	wfn5.bmp	blankscreen.bmp	circle.bmp
23	real_c	real_bottomleft_same_c	3	728	18	mask.bmp	blankscreen.bmp	wfd2.bmp	blankscreen.bmp	circle.bmp
23	real_c	real_topleft_same_c	4	686	23	mask.bmp	blankscreen.bmp	wfd1.bmp	blankscreen.bmp	square.bmp
23	real_c	real_bottomleft_diff_c	5	645	18	mask.bmp	blankscreen.bmp	wfn3.bmp	blankscreen.bmp	circle.bmp
23	real_c	real_topright_diff_c	6	735	23	mask.bmp	blankscreen.bmp	wmd4.bmp	blankscreen.bmp	square.bmp
23	real_c	real_topleft_diff_c	7	716	18	mask.bmp	blankscreen.bmp	wfd3.bmp	blankscreen.bmp	circle.bmp
23	real_c	real_bottomleft_same_c	8	762	23	mask.bmp	blankscreen.bmp	wmn1.bmp	blankscreen.bmp	square.bmp
23	real_c	real_bottomleft_diff_c	9	567	18	mask.bmp	blankscreen.bmp	wfd4.bmp	blankscreen.bmp	circle.bmp
23	real_c	real_bottomright_diff_c	10	587	23	mask.bmp	blankscreen.bmp	wmd3.bmp	blankscreen.bmp	square.bmp
23	real_c	real_topright_same_c	11	630	18	mask.bmp	blankscreen.bmp	wmd1.bmp	blankscreen.bmp	circle.bmp
23	real_c	real_bottomleft_diff_c	12	712	23	mask.bmp	blankscreen.bmp	wmd5.bmp	blankscreen.bmp	square.bmp
23	real_c	real_bottomright_diff_c	13	783	23	mask.bmp	blankscreen.bmp	wfd5.bmp	blankscreen.bmp	square.bmp
23	real_c	real_topleft_diff_c	14	730	18	mask.bmp	blankscreen.bmp	wmn5.bmp	blankscreen.bmp	circle.bmp
23	real_c	real_topleft_same_c	15	696	18	mask.bmp	blankscreen.bmp	wfn1.bmp	blankscreen.bmp	circle.bmp
23	real_c	real_topright_same_c	16	751	23	mask.bmp	blankscreen.bmp	wfn2.bmp	blankscreen.bmp	square.bmp
23	real_c	real_bottomright_same_c	17	556	23	mask.bmp	blankscreen.bmp	wmn2.bmp	blankscreen.bmp	square.bmp
23	real_c	real_bottomright_same_c	18	625	18	mask.bmp	blankscreen.bmp	wmd2.bmp	blankscreen.bmp	circle.bmp
23	real_c	real_bottomright_diff_c	19	971	23	mask.bmp	blankscreen.bmp	wmn4.bmp	blankscreen.bmp	square.bmp
23	real_c	real_topright_diff_c	20	591	23	mask.bmp	blankscreen.bmp	wmn3.bmp	blankscreen.bmp	square.bmp
23	real_d	real_topleft_same_d	1	701	23	mask.bmp	blankscreen.bmp	wmd6.bmp	blankscreen.bmp	square.bmp
23	real_d	real_topright_diff_d	2	604	23	mask.bmp	blankscreen.bmp	wmd10.bmp	blankscreen.bmp	square.bmp
23	real_d	real_topright_diff_d	3	631	18	mask.bmp	blankscreen.bmp	wfn8.bmp	blankscreen.bmp	circle.bmp
23	real_d	real_topright_diff_d	4	632	23	mask.bmp	blankscreen.bmp	wfd9.bmp	blankscreen.bmp	square.bmp
23	real_d	real_bottomleft_same_d	5	570	18	mask.bmp	blankscreen.bmp	wmn7.bmp	blankscreen.bmp	circle.bmp
23	real_d	real_bottomright_same_d	6	630	23	mask.bmp	blankscreen.bmp	wfd7.bmp	blankscreen.bmp	square.bmp
23	real_d	real_bottomright_diff_d	7	783	18	mask.bmp	blankscreen.bmp	wfd8.bmp	blankscreen.bmp	circle.bmp
23	real_d	real_topright_same_d	8	715	18	mask.bmp	blankscreen.bmp	wfd6.bmp	blankscreen.bmp	circle.bmp
23	real_d	real_topleft_diff_d	9	584	23	mask.bmp	blankscreen.bmp	wfn10.bmp	blankscreen.bmp	circle.bmp
23	real_d	real_bottomleft_diff_d	10	868	23	mask.bmp	blankscreen.bmp	wmd8.bmp	blankscreen.bmp	square.bmp
23	real_d	real_bottomleft_diff_d	11	692	18	mask.bmp	blankscreen.bmp	wmn9.bmp	blankscreen.bmp	circle.bmp
23	real_d	real_bottomright_diff_d	12	779	23	mask.bmp	blankscreen.bmp	wmn10.bmp	blankscreen.bmp	square.bmp
23	real_d	real_bottomleft_diff_d	13	631	23	mask.bmp	blankscreen.bmp	wfd10.bmp	blankscreen.bmp	square.bmp
23	real_d	real_bottomright_diff_d	14	609	23	mask.bmp	blankscreen.bmp	wfn9.bmp	blankscreen.bmp	square.bmp
23	real_d	real_topleft_diff_d	15	667	18	mask.bmp	blankscreen.bmp	wmn8.bmp	blankscreen.bmp	circle.bmp
23	real_d	real_topleft_same_d	16	731	18	mask.bmp	blankscreen.bmp	wmn6.bmp	blankscreen.bmp	circle.bmp
23	real_d	real_topright_same_d	17	656	23	mask.bmp	blankscreen.bmp	wmd7.bmp	blankscreen.bmp	square.bmp
23	real_d	real_bottomleft_same_d	18	561	23	mask.bmp	blankscreen.bmp	wfn6.bmp	blankscreen.bmp	square.bmp
23	real_d	real_bottomright_same_d	19	662	23	mask.bmp	blankscreen.bmp	wfn7.bmp	blankscreen.bmp	square.bmp
23	real_d	real_topleft_diff_d	20	535	23	mask.bmp	blankscreen.bmp	wmd9.bmp	blankscreen.bmp	square.bmp
27	practice	practice_bottomright_same	1	715	18	mask.bmp	blankscreen.bmp	practice7.jpg	blankscreen.bmp	circle.bmp
27	practice	practice_bottomright_same	2	449	18	mask.bmp	blankscreen.bmp	practice8.jpg	blankscreen.bmp	circle.bmp
27	practice	practice_topright_same	3	434	23	mask.bmp	blankscreen.bmp	practice3.jpg	blankscreen.bmp	square.bmp
27	practice	practice_topleft_same	4	403	23	mask.bmp	blankscreen.bmp	practice1.jpg	blankscreen.bmp	square.bmp
27	practice	practice_bottomleft_diff	5	526	23	mask.bmp	blankscreen.bmp	practice11.jpg	blankscreen.bmp	square.bmp
27	practice	practice_topleft_same	6	476	23	mask.bmp	blankscreen.bmp	practice2.jpg	blankscreen.bmp	square.bmp
27	practice	practice_bottomleft_same	7	348	18	mask.bmp	blankscreen.bmp	practice6.jpg	blankscreen.bmp	circle.bmp
27	practice	practice_bottomleft_same	8	552	18	mask.bmp	blankscreen.bmp	practice5.jpg	blankscreen.bmp	square.bmp
27	practice	practice_topright_diff	9	637	18	mask.bmp	blankscreen.bmp	practice10.jpg	blankscreen.bmp	circle.bmp
27	practice	practice_bottomright_diff	10	407	18	mask.bmp	blankscreen.bmp	practice12.jpg	blankscreen.bmp	circle.bmp
27	practice	practice_topleft_diff	11	553	18	mask.bmp	blankscreen.bmp	practice9.jpg	blankscreen.bmp	circle.bmp
27	practice	practice_topright_same	12	398	18	mask.bmp	blankscreen.bmp	practice4.jpg	blankscreen.bmp	circle.bmp
27	real_a	real_bottomleft_same_a	1	620	18	mask.bmp	blankscreen.bmp	wfn5.bmp	blankscreen.bmp	circle.bmp
27	real_a	real_topleft_same_a	2	342	23	mask.bmp	blankscreen.bmp	wfn4.bmp	blankscreen.bmp	square.bmp
27	real_a	real_topleft_diff_a	3	491	18	mask.bmp	blankscreen.bmp	wfd1.bmp	blankscreen.bmp	circle.bmp
27	real_a	real_bottomleft_diff_a	4	538	18	mask.bmp	blankscreen.bmp	wfn1.bmp	blankscreen.bmp	circle.bmp
27	real_a	real_topright_diff_a	5	536	18	mask.bmp	blankscreen.bmp	wmn1.bmp	blankscreen.bmp	circle.bmp
27	real_a	real_bottomright_same_a	6	573	23	mask.bmp	blankscreen.bmp	wmn5.bmp	blankscreen.bmp	square.bmp
27	real_a	real_bottomleft_same_a	7	369	18	mask.bmp	blankscreen.bmp	wmd4.bmp	blankscreen.bmp	square.bmp
27	real_a	real_bottomright_same_a	8	501	18	mask.bmp	blankscreen.bmp	wmd5.bmp	blankscreen.bmp	circle.bmp
27	real_a	real_bottomleft_diff_a	9	788	18	mask.bmp	blankscreen.bmp	wfd3.bmp	blankscreen.bmp	circle.bmp
27	real_a	real_topleft_diff_a	10	407	18	mask.bmp	blankscreen.bmp	wfn3.bmp	blankscreen.bmp	circle.bmp
27	real_a	real_topright_diff_a	11	754	18	mask.bmp	blankscreen.bmp	wmd3.bmp	blankscreen.bmp	circle.bmp
27	real_a	real_bottomright_diff_a	12	431	18	mask.bmp	blankscreen.bmp	wfn2.bmp	blankscreen.bmp	circle.bmp
27	real_a	real_topright_diff_a	13	688	18	mask.bmp	blankscreen.bmp	wfd2.bmp	blankscreen.bmp	circle.bmp
27	real_a	real_topright_same_a	14	487	18	mask.bmp	blankscreen.bmp	wmn4.bmp	blankscreen.bmp	circle.bmp
27	real_a	real_bottomleft_diff_a	15	391	18	mask.bmp	blankscreen.bmp	wmn2.bmp	blankscreen.bmp	circle.bmp
27	real_a	real_topleft_diff_a	16	410	18	mask.bmp	blankscreen.bmp	wmd2.bmp	blankscreen.bmp	circle.bmp
27	real_a	real_bottomright_diff_a	17	549	18	mask.bmp	blankscreen.bmp	wmd1.bmp	blankscreen.bmp	square.bmp
27	real_a	real_topleft_same_a	18	337	18	mask.bmp	blankscreen.bmp	wfd4.bmp	blankscreen.bmp	square.bmp
27	real_a	real_bottomright_diff_a	19	359	23	mask.bmp	blankscreen.bmp	wmn3.bmp	blankscreen.bmp	square.bmp
27	real_a	real_topright_same_a	20	356	23	mask.bmp	blankscreen.bmp	wfd5.bmp	blankscreen.bmp	circle.bmp
27	real_b	real_topleft_same_b	1	487	18	mask.bmp	blankscreen.bmp	wmd9.bmp	blankscreen.bmp	circle.bmp
27	real_b	real_topleft_same_b	2	622	23	mask.bmp	blankscreen.bmp	wmn9.bmp	blankscreen.bmp	square.bmp
27	real_b	real_topleft_diff_b	3	505	23	mask.bmp	blankscreen.bmp	wmd8.bmp	blankscreen.bmp	square.bmp
27	real_b	real_topright_diff_b	4	615	23	mask.bmp	blankscreen.bmp	wfn6.bmp	blankscreen.bmp	square.bmp
27	real_b	real_bottomright_diff_b	5	641	23	mask.bmp	blankscreen.bmp	wmd7.bmp	blankscreen.bmp	square.bmp
27	real_b	real_bottomright_same_b	6	587	18	mask.bmp	blankscreen.bmp	wfd10.bmp	blankscreen.bmp	circle.bmp
27	real_b	real_bottomleft_same_b	7	638	18	mask.bmp	blankscreen.bmp	wfd9.bmp	blankscreen.bmp	circle.bmp
27	real_b	real_bottomleft_diff_b	8	855	18	mask.bmp	blankscreen.bmp	wfn7.bmp	blankscreen.bmp	circle.bmp
27	real_b	real_topright_diff_b	9	464	18	mask.bmp	blankscreen.bmp	wmn7.bmp	blankscreen.bmp	circle.bmp
27	real_b	real_bottomleft_same_b	10	496	23	mask.bmp	blankscreen.bmp	wmd10.bmp	blankscreen.bmp	square.bmp
27	real_b	real_topright_same_b	11	302	23	mask.bmp	blankscreen.bmp	wfn9.bmp	blankscreen.bmp	square.bmp
27	real_b	real_bottomleft_diff_b	12	349	23	mask.bmp	blankscreen.bmp	wmd6.bmp	blankscreen.bmp	square.bmp
27	real_b	real_bottomright_diff_b	13	370	18	mask.bmp	blankscreen.bmp	wfn8.bmp	blankscreen.bmp	circle.bmp
27	real_b	real_topright_same_b	14	502	18	mask.bmp	blankscreen.bmp	wmn10.bmp	blankscreen.bmp	circle.bmp
27	real_b	real_bottomright_same_b	15	357	23	mask.bmp	blankscreen.bmp	wfn10.bmp	blankscreen.bmp	square.bmp
27	real_b	real_bottomright_diff_b	16	497	18	mask.bmp	blankscreen.bmp	wfd6.bmp	blankscreen.bmp	circle.bmp
27	real_b	real_bottomleft_diff_b	17	560	18	mask.bmp	blankscreen.bmp	wmn8.bmp	blankscreen.bmp	circle.bmp
27	real_b	real_topleft_diff_b	18	485	18	mask.bmp	blankscreen.bmp	wfd7.bmp	blankscreen.bmp	circle.bmp
27	real_b	real_topright_diff_b	19	476	18	mask.bmp	blankscreen.bmp	wfd8.bmp	blankscreen.bmp	circle.bmp
27	real_b	real_topleft_diff_b	20	548	18	mask.bmp	blankscreen.bmp	wmn6.bmp	blankscreen.bmp	circle.bmp
27	real_c	real_topleft_diff_c	1	518	23	mask.bmp	blankscreen.bmp	wfd3.bmp	blankscreen.bmp	square.bmp
27	real_c	real_bottomleft_same_c	2	412	23	mask.bmp	blankscreen.bmp	wfd2.bmp	blankscreen.bmp	square.bmp
27	real_c	real_topright_diff_c	3	543	23	mask.bmp	blankscreen.bmp	wmn3.bmp	blankscreen.bmp	square.bmp
27	real_c	real_topleft_same_c	4	500	23	mask.bmp	blankscreen.bmp	wfn1.bmp	blankscreen.bmp	square.bmp
27	real_c	real_bottomright_diff_c	5	643	18	mask.bmp	blankscreen.bmp	wmd3.bmp	blankscreen.bmp	circle.bmp
27	real_c	real_topleft_diff_c	6	500	23	mask.bmp	blankscreen.bmp	wfn4.bmp	blankscreen.bmp	circle.bmp
27	real_c	real_bottomleft_same_c	7	354	23	mask.bmp	blankscreen.bmp	wmn1.bmp	blankscreen.bmp	square.bmp
27	real_c	real_bottomright_same_c	8	535	18	mask.bmp	blankscreen.bmp	wmn2.bmp	blankscreen.bmp	circle.bmp
27	real_c	real_topleft_same_c	9	580	23	mask.bmp	blankscreen.bmp	wfd1.bmp	blankscreen.bmp	square.bmp
27	real_c	real_topright_same_c	10	408	23	mask.bmp	blankscreen.bmp	wmd1.bmp	blankscreen.bmp	square.bmp
27	real_c	real_topright_diff_c	11	475	18	mask.bmp	blankscreen.bmp	wmd4.bmp	blankscreen.bmp	circle.bmp
27	real_c	real_bottomleft_diff_c	12	491	23	mask.bmp	blankscreen.bmp	wfn3.bmp	blankscreen.bmp	square.bmp
27	real_c	real_topright_same_c	13	458	18	mask.bmp	blankscreen.bmp	wfn2.bmp	blankscreen.bmp	circle.bmp
27	real_c	real_bottomright_diff_c	14	603	23	mask.bmp	blankscreen.bmp	wmn4.bmp	blankscreen.bmp	square.bmp
27	real_c	real_topright_diff_c	15	405	23	mask.bmp	blankscreen.bmp	wfn5.bmp	blankscreen.bmp	square.bmp
27	real_c	real_topleft_diff_c	16	656	18	mask.bmp	blankscreen.bmp	wmn5.bmp	blankscreen.bmp	circle.bmp
27	real_c	real_bottomright_same_c	17	545	18	mask.bmp	blankscreen.bmp	wmd2.bmp	blankscreen.bmp	circle.bmp
27	real_c	real_bottomright_diff_c	18	582	18	mask.bmp	blankscreen.bmp	wfd5.bmp	blankscreen.bmp	circle.bmp
27	real_c	real_bottomleft_diff_c	19	489	18	mask.bmp	blankscreen.bmp	wfd4.bmp	blankscreen.bmp	circle.bmp
27	real_c	real_bottomleft_diff_c	20	425	18	mask.bmp	blankscreen.bmp	wmd5.bmp	blankscreen.bmp	circle.bmp
27	real_d	real_topleft_diff_d	1	344	23	mask.bmp	blankscreen.bmp	wmd9.bmp	blankscreen.bmp	square.bmp
27	real_d	real_topleft_diff_d	2	525	18	mask.bmp	blankscreen.bmp	wmn8.bmp	blankscreen.bmp	circle.bmp
27	real_d	real_bottomleft_diff_d	3	547	18	mask.bmp	blankscreen.bmp	wfd10.bmp	blankscreen.bmp	circle.bmp
27	real_d	real_topright_diff_d	4	576	18	mask.bmp	blankscreen.bmp	wfn8.bmp	blankscreen.bmp	circle.bmp
27	real_d	real_topleft_same_d	5	660	23	mask.bmp	blankscreen.bmp	wmd6.bmp	blankscreen.bmp	square.bmp
27	real_d	real_bottomright_diff_d	6	661	18	mask.bmp	blankscreen.bmp	wmn10.bmp	blankscreen.bmp	circle.bmp
27	real_d	real_bottomleft_same_d	7	589	18	mask.bmp	blankscreen.bmp	wfn6.bmp	blankscreen.bmp	circle.bmp
27	real_d	real_topright_same_d	8	761	23	mask.bmp	blankscreen.bmp	wfd6.bmp	blankscreen.bmp	square.bmp
27	real_d	real_bottomleft_diff_d	9	517	23	mask.bmp	blankscreen.bmp	wmn9.bmp	blankscreen.bmp	square.bmp
27	real_d	real_bottomright_diff_d	10	443	23	mask.bmp	blankscreen.bmp	wfd8.bmp	blankscreen.bmp	square.bmp
27	real_d	real_topright_diff_d	11	421	23	mask.bmp	blankscreen.bmp	wfd9.bmp	blankscreen.bmp	square.bmp
27	real_d	real_topleft_same_d	12	567	23	mask.bmp	blankscreen.bmp	wmn6.bmp	blankscreen.bmp	square.bmp
27	real_d	real_topleft_diff_d	13	571	23	mask.bmp	blankscreen.bmp	wfn10.bmp	blankscreen.bmp	square.bmp
27	real_d	real_bottomright_same_d	14	463	18	mask.bmp	blankscreen.bmp	wfd7.bmp	blankscreen.bmp	circle.bmp
27	real_d	real_topright_diff_d	15	1063	18	mask.bmp	blankscreen.bmp	wmd10.bmp	blankscreen.bmp	circle.bmp
27	real_d	real_bottomright_diff_d	16	551	18	mask.bmp	blankscreen.bmp	wfn9.bmp	blankscreen.bmp	circle.bmp
27	real_d	real_bottomleft_same_d	17	748	18	mask.bmp	blankscreen.bmp	wmn7.bmp	blankscreen.bmp	circle.bmp
27	real_d	real_bottomright_same_d	18	465	18	mask.bmp	blankscreen.bmp	wfn7.bmp	blankscreen.bmp	circle.bmp
27	real_d	real_bottomleft_diff_d	19	657	18	mask.bmp	blankscreen.bmp	wmd8.bmp	blankscreen.bmp	circle.bmp
27	real_d	real_topright_same_d	20	449	18	mask.bmp	blankscreen.bmp	wmd7.bmp	blankscreen.bmp	circle.bmp
30	practice	practice_bottomright_same	1	942	23	mask.bmp	blankscreen.bmp	practice8.jpg	blankscreen.bmp	circle.bmp
30	practice	practice_bottomleft_same	2	884	18	mask.bmp	blankscreen.bmp	practice6.jpg	blankscreen.bmp	square.bmp
30	practice	practice_topleft_same	3	459	18	mask.bmp	blankscreen.bmp	practice2.jpg	blankscreen.bmp	circle.bmp
30	practice	practice_bottomright_diff	4	2819	23	mask.bmp	blankscreen.bmp	practice12.jpg	blankscreen.bmp	circle.bmp
30	practice	practice_topright_same	5	1381	23	mask.bmp	blankscreen.bmp	practice4.jpg	blankscreen.bmp	square.bmp
30	practice	practice_bottomright_same	6	3601	18	mask.bmp	blankscreen.bmp	practice7.jpg	blankscreen.bmp	square.bmp
30	practice	practice_bottomleft_diff	7	2547	23	mask.bmp	blankscreen.bmp	practice11.jpg	blankscreen.bmp	square.bmp
30	practice	practice_bottomleft_same	8	672	18	mask.bmp	blankscreen.bmp	practice5.jpg	blankscreen.bmp	circle.bmp
30	practice	practice_topleft_same	9	2072	23	mask.bmp	blankscreen.bmp	practice1.jpg	blankscreen.bmp	circle.bmp
30	practice	practice_topright_same	10	1704	23	mask.bmp	blankscreen.bmp	practice3.jpg	blankscreen.bmp	circle.bmp
30	practice	practice_topright_diff	11	1447	23	mask.bmp	blankscreen.bmp	practice10.jpg	blankscreen.bmp	circle.bmp
30	practice	practice_topleft_diff	12	688	18	mask.bmp	blankscreen.bmp	practice9.jpg	blankscreen.bmp	square.bmp
30	real_a	real_bottomright_same_a	1	807	23	mask.bmp	blankscreen.bmp	wmd5.bmp	blankscreen.bmp	square.bmp
30	real_a	real_bottomright_diff_a	2	865	18	mask.bmp	blankscreen.bmp	wmn3.bmp	blankscreen.bmp	circle.bmp
30	real_a	real_bottomright_diff_a	3	1057	18	mask.bmp	blankscreen.bmp	wfn2.bmp	blankscreen.bmp	square.bmp
30	real_a	real_topright_same_a	4	1426	18	mask.bmp	blankscreen.bmp	wfd5.bmp	blankscreen.bmp	circle.bmp
30	real_a	real_topleft_same_a	5	5004	18	mask.bmp	blankscreen.bmp	wfn4.bmp	blankscreen.bmp	circle.bmp
30	real_a	real_topright_diff_a	6	1007	23	mask.bmp	blankscreen.bmp	wmd3.bmp	blankscreen.bmp	circle.bmp
30	real_a	real_topleft_diff_a	7	1441	23	mask.bmp	blankscreen.bmp	wmd2.bmp	blankscreen.bmp	square.bmp
30	real_a	real_topleft_diff_a	8	883	18	mask.bmp	blankscreen.bmp	wfd1.bmp	blankscreen.bmp	circle.bmp
30	real_a	real_topright_same_a	9	1434	23	mask.bmp	blankscreen.bmp	wmn4.bmp	blankscreen.bmp	square.bmp
30	real_a	real_bottomleft_diff_a	10	571	23	mask.bmp	blankscreen.bmp	wfn1.bmp	blankscreen.bmp	square.bmp
30	real_a	real_topright_diff_a	11	967	23	mask.bmp	blankscreen.bmp	wmn1.bmp	blankscreen.bmp	square.bmp
30	real_a	real_topleft_same_a	12	787	23	mask.bmp	blankscreen.bmp	wfd4.bmp	blankscreen.bmp	square.bmp
30	real_a	real_bottomleft_diff_a	13	727	23	mask.bmp	blankscreen.bmp	wfd3.bmp	blankscreen.bmp	square.bmp
30	real_a	real_bottomleft_same_a	14	853	18	mask.bmp	blankscreen.bmp	wfn5.bmp	blankscreen.bmp	circle.bmp
30	real_a	real_topright_diff_a	15	1333	18	mask.bmp	blankscreen.bmp	wfd2.bmp	blankscreen.bmp	square.bmp
30	real_a	real_bottomright_same_a	16	867	23	mask.bmp	blankscreen.bmp	wmn5.bmp	blankscreen.bmp	square.bmp
30	real_a	real_bottomleft_same_a	17	467	23	mask.bmp	blankscreen.bmp	wmd4.bmp	blankscreen.bmp	square.bmp
30	real_a	real_bottomright_diff_a	18	795	23	mask.bmp	blankscreen.bmp	wmd1.bmp	blankscreen.bmp	square.bmp
30	real_a	real_bottomleft_diff_a	19	798	18	mask.bmp	blankscreen.bmp	wmn2.bmp	blankscreen.bmp	circle.bmp
30	real_a	real_topleft_diff_a	20	609	18	mask.bmp	blankscreen.bmp	wfn3.bmp	blankscreen.bmp	circle.bmp
30	real_b	real_topright_same_b	1	633	18	mask.bmp	blankscreen.bmp	wmn10.bmp	blankscreen.bmp	circle.bmp
30	real_b	real_bottomright_same_b	2	458	23	mask.bmp	blankscreen.bmp	wfn10.bmp	blankscreen.bmp	square.bmp
30	real_b	real_bottomleft_same_b	3	579	23	mask.bmp	blankscreen.bmp	wfd9.bmp	blankscreen.bmp	square.bmp
30	real_b	real_bottomright_diff_b	4	1279	23	mask.bmp	blankscreen.bmp	wfn8.bmp	blankscreen.bmp	square.bmp
30	real_b	real_topleft_diff_b	5	1455	23	mask.bmp	blankscreen.bmp	wmd8.bmp	blankscreen.bmp	square.bmp
30	real_b	real_bottomright_same_b	6	639	23	mask.bmp	blankscreen.bmp	wfd10.bmp	blankscreen.bmp	square.bmp
30	real_b	real_bottomleft_diff_b	7	641	23	mask.bmp	blankscreen.bmp	wfn7.bmp	blankscreen.bmp	square.bmp
30	real_b	real_topleft_diff_b	8	514	18	mask.bmp	blankscreen.bmp	wmn6.bmp	blankscreen.bmp	circle.bmp
30	real_b	real_topright_same_b	9	960	23	mask.bmp	blankscreen.bmp	wfn9.bmp	blankscreen.bmp	square.bmp
30	real_b	real_topright_diff_b	10	885	23	mask.bmp	blankscreen.bmp	wfd8.bmp	blankscreen.bmp	square.bmp
30	real_b	real_bottomleft_same_b	11	540	18	mask.bmp	blankscreen.bmp	wmd10.bmp	blankscreen.bmp	circle.bmp
30	real_b	real_bottomleft_diff_b	12	505	18	mask.bmp	blankscreen.bmp	wmn8.bmp	blankscreen.bmp	circle.bmp
30	real_b	real_bottomright_diff_b	13	520	18	mask.bmp	blankscreen.bmp	wmd7.bmp	blankscreen.bmp	circle.bmp
30	real_b	real_bottomright_diff_b	14	646	18	mask.bmp	blankscreen.bmp	wfd6.bmp	blankscreen.bmp	circle.bmp
30	real_b	real_topleft_same_b	15	511	23	mask.bmp	blankscreen.bmp	wmn9.bmp	blankscreen.bmp	square.bmp
30	real_b	real_topright_diff_b	16	750	23	mask.bmp	blankscreen.bmp	wfn6.bmp	blankscreen.bmp	square.bmp
30	real_b	real_topleft_diff_b	17	603	23	mask.bmp	blankscreen.bmp	wfd7.bmp	blankscreen.bmp	square.bmp
30	real_b	real_bottomleft_diff_b	18	605	23	mask.bmp	blankscreen.bmp	wmd6.bmp	blankscreen.bmp	square.bmp
30	real_b	real_topleft_same_b	19	528	18	mask.bmp	blankscreen.bmp	wmd9.bmp	blankscreen.bmp	circle.bmp
30	real_b	real_topright_diff_b	20	566	18	mask.bmp	blankscreen.bmp	wmn7.bmp	blankscreen.bmp	circle.bmp
30	real_c	real_topleft_diff_c	1	975	23	mask.bmp	blankscreen.bmp	wfn4.bmp	blankscreen.bmp	square.bmp
30	real_c	real_topright_diff_c	2	635	23	mask.bmp	blankscreen.bmp	wfn5.bmp	blankscreen.bmp	square.bmp
30	real_c	real_bottomright_diff_c	3	469	18	mask.bmp	blankscreen.bmp	wmd3.bmp	blankscreen.bmp	circle.bmp
30	real_c	real_bottomright_diff_c	4	917	23	mask.bmp	blankscreen.bmp	wmn4.bmp	blankscreen.bmp	square.bmp
30	real_c	real_topleft_same_c	5	411	23	mask.bmp	blankscreen.bmp	wfn1.bmp	blankscreen.bmp	square.bmp
30	real_c	real_bottomleft_diff_c	6	565	18	mask.bmp	blankscreen.bmp	wfn3.bmp	blankscreen.bmp	circle.bmp
30	real_c	real_bottomleft_diff_c	7	569	18	mask.bmp	blankscreen.bmp	wmd5.bmp	blankscreen.bmp	circle.bmp
30	real_c	real_bottomleft_same_c	8	581	23	mask.bmp	blankscreen.bmp	wmn1.bmp	blankscreen.bmp	square.bmp
30	real_c	real_bottomleft_same_c	9	473	18	mask.bmp	blankscreen.bmp	wfd2.bmp	blankscreen.bmp	circle.bmp
30	real_c	real_topright_diff_c	10	553	23	mask.bmp	blankscreen.bmp	wmn3.bmp	blankscreen.bmp	square.bmp
30	real_c	real_topleft_diff_c	11	645	18	mask.bmp	blankscreen.bmp	wfd3.bmp	blankscreen.bmp	circle.bmp
30	real_c	real_bottomright_diff_c	12	703	18	mask.bmp	blankscreen.bmp	wfd5.bmp	blankscreen.bmp	circle.bmp
30	real_c	real_topleft_same_c	13	589	18	mask.bmp	blankscreen.bmp	wfd1.bmp	blankscreen.bmp	circle.bmp
30	real_c	real_topleft_diff_c	14	417	18	mask.bmp	blankscreen.bmp	wmn5.bmp	blankscreen.bmp	circle.bmp
30	real_c	real_bottomright_same_c	15	507	18	mask.bmp	blankscreen.bmp	wmn2.bmp	blankscreen.bmp	circle.bmp
30	real_c	real_bottomright_same_c	16	465	23	mask.bmp	blankscreen.bmp	wmd2.bmp	blankscreen.bmp	square.bmp
30	real_c	real_topright_same_c	17	489	18	mask.bmp	blankscreen.bmp	wfn2.bmp	blankscreen.bmp	circle.bmp
30	real_c	real_topright_same_c	18	601	18	mask.bmp	blankscreen.bmp	wmd1.bmp	blankscreen.bmp	circle.bmp
30	real_c	real_bottomleft_diff_c	19	619	18	mask.bmp	blankscreen.bmp	wfd4.bmp	blankscreen.bmp	circle.bmp
30	real_c	real_topright_diff_c	20	525	18	mask.bmp	blankscreen.bmp	wmd4.bmp	blankscreen.bmp	circle.bmp
30	real_d	real_bottomleft_same_d	1	354	18	mask.bmp	blankscreen.bmp	wmn7.bmp	blankscreen.bmp	circle.bmp
30	real_d	real_topleft_diff_d	2	487	18	mask.bmp	blankscreen.bmp	wmd9.bmp	blankscreen.bmp	circle.bmp
30	real_d	real_bottomright_same_d	3	734	23	mask.bmp	blankscreen.bmp	wfn7.bmp	blankscreen.bmp	square.bmp
30	real_d	real_topleft_diff_d	4	851	23	mask.bmp	blankscreen.bmp	wmn8.bmp	blankscreen.bmp	square.bmp
30	real_d	real_topright_same_d	5	508	23	mask.bmp	blankscreen.bmp	wfd6.bmp	blankscreen.bmp	square.bmp
30	real_d	real_topleft_same_d	6	515	18	mask.bmp	blankscreen.bmp	wmd6.bmp	blankscreen.bmp	circle.bmp
30	real_d	real_bottomleft_diff_d	7	480	23	mask.bmp	blankscreen.bmp	wmd8.bmp	blankscreen.bmp	square.bmp
30	real_d	real_topright_diff_d	8	744	23	mask.bmp	blankscreen.bmp	wfn8.bmp	blankscreen.bmp	square.bmp
30	real_d	real_bottomleft_diff_d	9	757	23	mask.bmp	blankscreen.bmp	wmn9.bmp	blankscreen.bmp	square.bmp
30	real_d	real_bottomleft_same_d	10	594	18	mask.bmp	blankscreen.bmp	wfn6.bmp	blankscreen.bmp	circle.bmp
30	real_d	real_topleft_same_d	11	509	23	mask.bmp	blankscreen.bmp	wmn6.bmp	blankscreen.bmp	square.bmp
30	real_d	real_topright_same_d	12	612	18	mask.bmp	blankscreen.bmp	wmd7.bmp	blankscreen.bmp	circle.bmp
30	real_d	real_bottomleft_diff_d	13	551	23	mask.bmp	blankscreen.bmp	wfd10.bmp	blankscreen.bmp	square.bmp
30	real_d	real_topright_diff_d	14	515	18	mask.bmp	blankscreen.bmp	wfd9.bmp	blankscreen.bmp	circle.bmp
30	real_d	real_bottomright_diff_d	15	489	18	mask.bmp	blankscreen.bmp	wfn9.bmp	blankscreen.bmp	circle.bmp
30	real_d	real_bottomright_diff_d	16	633	23	mask.bmp	blankscreen.bmp	wmn10.bmp	blankscreen.bmp	square.bmp
30	real_d	real_topleft_diff_d	17	538	23	mask.bmp	blankscreen.bmp	wfn10.bmp	blankscreen.bmp	square.bmp
30	real_d	real_bottomright_same_d	18	423	23	mask.bmp	blankscreen.bmp	wfd7.bmp	blankscreen.bmp	square.bmp
30	real_d	real_topright_diff_d	19	457	18	mask.bmp	blankscreen.bmp	wmd10.bmp	blankscreen.bmp	circle.bmp
30	real_d	real_bottomright_diff_d	20	482	23	mask.bmp	blankscreen.bmp	wfd8.bmp	blankscreen.bmp	square.bmp
34	practice	practice_topleft_same	1	782	18	mask.bmp	blankscreen.bmp	practice1.jpg	blankscreen.bmp	circle.bmp
34	practice	practice_bottomleft_same	2	458	18	mask.bmp	blankscreen.bmp	practice6.jpg	blankscreen.bmp	circle.bmp
34	practice	practice_topright_same	3	539	23	mask.bmp	blankscreen.bmp	practice4.jpg	blankscreen.bmp	square.bmp
34	practice	practice_topleft_same	4	520	23	mask.bmp	blankscreen.bmp	practice2.jpg	blankscreen.bmp	square.bmp
34	practice	practice_bottomright_same	5	582	23	mask.bmp	blankscreen.bmp	practice7.jpg	blankscreen.bmp	square.bmp
34	practice	practice_topleft_diff	6	537	23	mask.bmp	blankscreen.bmp	practice9.jpg	blankscreen.bmp	square.bmp
34	practice	practice_bottomright_diff	7	566	23	mask.bmp	blankscreen.bmp	practice12.jpg	blankscreen.bmp	square.bmp
34	practice	practice_bottomleft_same	8	499	18	mask.bmp	blankscreen.bmp	practice5.jpg	blankscreen.bmp	circle.bmp
34	practice	practice_topright_diff	9	601	23	mask.bmp	blankscreen.bmp	practice10.jpg	blankscreen.bmp	square.bmp
34	practice	practice_topright_same	10	604	18	mask.bmp	blankscreen.bmp	practice3.jpg	blankscreen.bmp	circle.bmp
34	practice	practice_bottomright_same	11	550	23	mask.bmp	blankscreen.bmp	practice8.jpg	blankscreen.bmp	square.bmp
34	practice	practice_bottomleft_diff	12	659	18	mask.bmp	blankscreen.bmp	practice11.jpg	blankscreen.bmp	circle.bmp
34	real_a	real_topleft_diff_a	1	557	23	mask.bmp	blankscreen.bmp	wmd2.bmp	blankscreen.bmp	square.bmp
34	real_a	real_bottomleft_diff_a	2	609	23	mask.bmp	blankscreen.bmp	wfn1.bmp	blankscreen.bmp	square.bmp
34	real_a	real_topright_diff_a	3	604	23	mask.bmp	blankscreen.bmp	wmn1.bmp	blankscreen.bmp	square.bmp
34	real_a	real_topleft_same_a	4	550	18	mask.bmp	blankscreen.bmp	wfn4.bmp	blankscreen.bmp	circle.bmp
34	real_a	real_topright_diff_a	5	651	23	mask.bmp	blankscreen.bmp	wmd3.bmp	blankscreen.bmp	square.bmp
34	real_a	real_bottomright_same_a	6	588	23	mask.bmp	blankscreen.bmp	wmd5.bmp	blankscreen.bmp	square.bmp
34	real_a	real_topleft_diff_a	7	519	23	mask.bmp	blankscreen.bmp	wfd1.bmp	blankscreen.bmp	square.bmp
34	real_a	real_topright_diff_a	8	637	18	mask.bmp	blankscreen.bmp	wfd2.bmp	blankscreen.bmp	circle.bmp
34	real_a	real_bottomright_diff_a	9	598	18	mask.bmp	blankscreen.bmp	wmn3.bmp	blankscreen.bmp	circle.bmp
34	real_a	real_topleft_same_a	10	529	23	mask.bmp	blankscreen.bmp	wfd4.bmp	blankscreen.bmp	square.bmp
34	real_a	real_bottomright_diff_a	11	551	23	mask.bmp	blankscreen.bmp	wmd1.bmp	blankscreen.bmp	square.bmp
34	real_a	real_topleft_diff_a	12	644	23	mask.bmp	blankscreen.bmp	wfn3.bmp	blankscreen.bmp	square.bmp
34	real_a	real_bottomleft_diff_a	13	621	18	mask.bmp	blankscreen.bmp	wfd3.bmp	blankscreen.bmp	circle.bmp
34	real_a	real_bottomleft_diff_a	14	551	18	mask.bmp	blankscreen.bmp	wmn2.bmp	blankscreen.bmp	circle.bmp
34	real_a	real_topright_same_a	15	524	23	mask.bmp	blankscreen.bmp	wmn4.bmp	blankscreen.bmp	square.bmp
34	real_a	real_topright_same_a	16	570	18	mask.bmp	blankscreen.bmp	wfd5.bmp	blankscreen.bmp	circle.bmp
34	real_a	real_bottomright_diff_a	17	622	23	mask.bmp	blankscreen.bmp	wfn2.bmp	blankscreen.bmp	square.bmp
34	real_a	real_bottomleft_same_a	18	624	18	mask.bmp	blankscreen.bmp	wfn5.bmp	blankscreen.bmp	circle.bmp
34	real_a	real_bottomright_same_a	19	650	23	mask.bmp	blankscreen.bmp	wmn5.bmp	blankscreen.bmp	square.bmp
34	real_a	real_bottomleft_same_a	20	514	18	mask.bmp	blankscreen.bmp	wmd4.bmp	blankscreen.bmp	circle.bmp
34	real_b	real_topright_diff_b	1	536	18	mask.bmp	blankscreen.bmp	wfn6.bmp	blankscreen.bmp	circle.bmp
34	real_b	real_topleft_diff_b	2	469	23	mask.bmp	blankscreen.bmp	wmn6.bmp	blankscreen.bmp	square.bmp
34	real_b	real_bottomleft_diff_b	3	525	18	mask.bmp	blankscreen.bmp	wmd6.bmp	blankscreen.bmp	circle.bmp
34	real_b	real_bottomleft_diff_b	4	507	18	mask.bmp	blankscreen.bmp	wfn7.bmp	blankscreen.bmp	circle.bmp
34	real_b	real_topright_diff_b	5	530	23	mask.bmp	blankscreen.bmp	wmn7.bmp	blankscreen.bmp	square.bmp
34	real_b	real_topright_same_b	6	520	23	mask.bmp	blankscreen.bmp	wfn9.bmp	blankscreen.bmp	square.bmp
34	real_b	real_topleft_diff_b	7	558	18	mask.bmp	blankscreen.bmp	wfd7.bmp	blankscreen.bmp	circle.bmp
34	real_b	real_bottomright_diff_b	8	602	18	mask.bmp	blankscreen.bmp	wfd6.bmp	blankscreen.bmp	circle.bmp
34	real_b	real_bottomright_diff_b	9	541	23	mask.bmp	blankscreen.bmp	wfn8.bmp	blankscreen.bmp	square.bmp
34	real_b	real_bottomleft_same_b	10	530	23	mask.bmp	blankscreen.bmp	wmd10.bmp	blankscreen.bmp	square.bmp
34	real_b	real_topright_diff_b	11	440	18	mask.bmp	blankscreen.bmp	wfd8.bmp	blankscreen.bmp	circle.bmp
34	real_b	real_bottomleft_same_b	12	449	18	mask.bmp	blankscreen.bmp	wfd9.bmp	blankscreen.bmp	circle.bmp
34	real_b	real_topleft_same_b	13	322	18	mask.bmp	blankscreen.bmp	wmd9.bmp	blankscreen.bmp	circle.bmp
34	real_b	real_topleft_diff_b	14	432	23	mask.bmp	blankscreen.bmp	wmd8.bmp	blankscreen.bmp	square.bmp
34	real_b	real_bottomright_same_b	15	361	23	mask.bmp	blankscreen.bmp	wfd10.bmp	blankscreen.bmp	square.bmp
34	real_b	real_topleft_same_b	16	470	23	mask.bmp	blankscreen.bmp	wmn9.bmp	blankscreen.bmp	square.bmp
34	real_b	real_bottomleft_diff_b	17	510	23	mask.bmp	blankscreen.bmp	wmn8.bmp	blankscreen.bmp	square.bmp
34	real_b	real_bottomright_same_b	18	317	18	mask.bmp	blankscreen.bmp	wfn10.bmp	blankscreen.bmp	circle.bmp
34	real_b	real_bottomright_diff_b	19	482	18	mask.bmp	blankscreen.bmp	wmd7.bmp	blankscreen.bmp	circle.bmp
34	real_b	real_topright_same_b	20	442	18	mask.bmp	blankscreen.bmp	wmn10.bmp	blankscreen.bmp	circle.bmp
34	real_c	real_bottomleft_diff_c	1	644	23	mask.bmp	blankscreen.bmp	wmd5.bmp	blankscreen.bmp	square.bmp
34	real_c	real_bottomright_diff_c	2	709	18	mask.bmp	blankscreen.bmp	wmd3.bmp	blankscreen.bmp	circle.bmp
34	real_c	real_topright_diff_c	3	564	18	mask.bmp	blankscreen.bmp	wfn5.bmp	blankscreen.bmp	circle.bmp
34	real_c	real_bottomleft_same_c	4	512	23	mask.bmp	blankscreen.bmp	wfd2.bmp	blankscreen.bmp	square.bmp
34	real_c	real_bottomleft_diff_c	5	510	23	mask.bmp	blankscreen.bmp	wfd4.bmp	blankscreen.bmp	square.bmp
34	real_c	real_topleft_same_c	6	453	18	mask.bmp	blankscreen.bmp	wfn1.bmp	blankscreen.bmp	circle.bmp
34	real_c	real_topright_diff_c	7	470	18	mask.bmp	blankscreen.bmp	wmd4.bmp	blankscreen.bmp	circle.bmp
34	real_c	real_bottomleft_diff_c	8	550	18	mask.bmp	blankscreen.bmp	wfn3.bmp	blankscreen.bmp	circle.bmp
34	real_c	real_topleft_same_c	9	491	18	mask.bmp	blankscreen.bmp	wfd1.bmp	blankscreen.bmp	circle.bmp
34	real_c	real_bottomright_diff_c	10	482	23	mask.bmp	blankscreen.bmp	wfd5.bmp	blankscreen.bmp	square.bmp
34	real_c	real_topright_same_c	11	449	23	mask.bmp	blankscreen.bmp	wfn2.bmp	blankscreen.bmp	square.bmp
34	real_c	real_topleft_diff_c	12	546	23	mask.bmp	blankscreen.bmp	wfn4.bmp	blankscreen.bmp	square.bmp
34	real_c	real_bottomright_same_c	13	567	18	mask.bmp	blankscreen.bmp	wmn2.bmp	blankscreen.bmp	circle.bmp
34	real_c	real_bottomright_same_c	14	691	23	mask.bmp	blankscreen.bmp	wmd2.bmp	blankscreen.bmp	square.bmp
34	real_c	real_topright_diff_c	15	634	23	mask.bmp	blankscreen.bmp	wmn3.bmp	blankscreen.bmp	square.bmp
34	real_c	real_topright_same_c	16	644	23	mask.bmp	blankscreen.bmp	wmd1.bmp	blankscreen.bmp	square.bmp
34	real_c	real_bottomright_diff_c	17	605	18	mask.bmp	blankscreen.bmp	wmn4.bmp	blankscreen.bmp	circle.bmp
34	real_c	real_topleft_diff_c	18	528	18	mask.bmp	blankscreen.bmp	wfd3.bmp	blankscreen.bmp	circle.bmp
34	real_c	real_topleft_diff_c	19	518	23	mask.bmp	blankscreen.bmp	wmn5.bmp	blankscreen.bmp	square.bmp
34	real_c	real_bottomleft_same_c	20	516	18	mask.bmp	blankscreen.bmp	wmn1.bmp	blankscreen.bmp	circle.bmp
34	real_d	real_bottomright_same_d	1	413	23	mask.bmp	blankscreen.bmp	wfd7.bmp	blankscreen.bmp	square.bmp
34	real_d	real_bottomright_diff_d	2	552	23	mask.bmp	blankscreen.bmp	wfn9.bmp	blankscreen.bmp	square.bmp
34	real_d	real_topright_diff_d	3	484	23	mask.bmp	blankscreen.bmp	wfn8.bmp	blankscreen.bmp	square.bmp
34	real_d	real_topleft_diff_d	4	540	18	mask.bmp	blankscreen.bmp	wmd9.bmp	blankscreen.bmp	circle.bmp
34	real_d	real_topleft_same_d	5	513	23	mask.bmp	blankscreen.bmp	wmd6.bmp	blankscreen.bmp	square.bmp
34	real_d	real_bottomright_diff_d	6	440	23	mask.bmp	blankscreen.bmp	wfd8.bmp	blankscreen.bmp	square.bmp
34	real_d	real_topright_same_d	7	505	18	mask.bmp	blankscreen.bmp	wfd6.bmp	blankscreen.bmp	circle.bmp
34	real_d	real_topright_diff_d	8	568	23	mask.bmp	blankscreen.bmp	wmd10.bmp	blankscreen.bmp	square.bmp
34	real_d	real_bottomleft_diff_d	9	500	23	mask.bmp	blankscreen.bmp	wfd10.bmp	blankscreen.bmp	square.bmp
34	real_d	real_topright_same_d	10	346	23	mask.bmp	blankscreen.bmp	wmd7.bmp	blankscreen.bmp	square.bmp
34	real_d	real_topleft_same_d	11	448	23	mask.bmp	blankscreen.bmp	wmn6.bmp	blankscreen.bmp	square.bmp
34	real_d	real_bottomright_diff_d	12	449	23	mask.bmp	blankscreen.bmp	wmn10.bmp	blankscreen.bmp	square.bmp
34	real_d	real_topright_diff_d	13	505	23	mask.bmp	blankscreen.bmp	wfd9.bmp	blankscreen.bmp	square.bmp
34	real_d	real_topleft_diff_d	14	504	23	mask.bmp	blankscreen.bmp	wfn10.bmp	blankscreen.bmp	square.bmp
34	real_d	real_bottomleft_same_d	15	470	23	mask.bmp	blankscreen.bmp	wmn7.bmp	blankscreen.bmp	square.bmp
34	real_d	real_bottomleft_same_d	16	478	23	mask.bmp	blankscreen.bmp	wfn6.bmp	blankscreen.bmp	square.bmp
34	real_d	real_bottomleft_diff_d	17	470	18	mask.bmp	blankscreen.bmp	wmn9.bmp	blankscreen.bmp	circle.bmp
34	real_d	real_topleft_diff_d	18	526	23	mask.bmp	blankscreen.bmp	wmn8.bmp	blankscreen.bmp	square.bmp
34	real_d	real_bottomleft_diff_d	19	524	23	mask.bmp	blankscreen.bmp	wmd8.bmp	blankscreen.bmp	square.bmp
34	real_d	real_bottomright_same_d	20	482	18	mask.bmp	blankscreen.bmp	wfn7.bmp	blankscreen.bmp	circle.bmp
38	practice	practice_topright_diff	1	2128	23	mask.bmp	blankscreen.bmp	practice10.jpg	blankscreen.bmp	square.bmp
38	practice	practice_bottomright_same	2	630	18	mask.bmp	blankscreen.bmp	practice7.jpg	blankscreen.bmp	circle.bmp
38	practice	practice_bottomleft_diff	3	464	18	mask.bmp	blankscreen.bmp	practice11.jpg	blankscreen.bmp	circle.bmp
38	practice	practice_topleft_same	4	688	23	mask.bmp	blankscreen.bmp	practice1.jpg	blankscreen.bmp	square.bmp
38	practice	practice_bottomright_diff	5	527	18	mask.bmp	blankscreen.bmp	practice12.jpg	blankscreen.bmp	circle.bmp
38	practice	practice_bottomleft_same	6	349	23	mask.bmp	blankscreen.bmp	practice5.jpg	blankscreen.bmp	square.bmp
38	practice	practice_topleft_same	7	538	23	mask.bmp	blankscreen.bmp	practice2.jpg	blankscreen.bmp	square.bmp
38	practice	practice_bottomleft_same	8	399	18	mask.bmp	blankscreen.bmp	practice6.jpg	blankscreen.bmp	circle.bmp
38	practice	practice_topright_same	9	498	18	mask.bmp	blankscreen.bmp	practice3.jpg	blankscreen.bmp	circle.bmp
38	practice	practice_topright_same	10	433	23	mask.bmp	blankscreen.bmp	practice4.jpg	blankscreen.bmp	square.bmp
38	practice	practice_bottomright_same	11	258	18	mask.bmp	blankscreen.bmp	practice8.jpg	blankscreen.bmp	circle.bmp
38	practice	practice_topleft_diff	12	610	18	mask.bmp	blankscreen.bmp	practice9.jpg	blankscreen.bmp	circle.bmp
38	real_a	real_bottomleft_diff_a	1	401	18	mask.bmp	blankscreen.bmp	wmn2.bmp	blankscreen.bmp	circle.bmp
38	real_a	real_bottomright_diff_a	2	363	18	mask.bmp	blankscreen.bmp	wmd1.bmp	blankscreen.bmp	circle.bmp
38	real_a	real_bottomright_diff_a	3	280	23	mask.bmp	blankscreen.bmp	wmn3.bmp	blankscreen.bmp	square.bmp
38	real_a	real_bottomright_diff_a	4	296	23	mask.bmp	blankscreen.bmp	wfn2.bmp	blankscreen.bmp	square.bmp
38	real_a	real_topleft_same_a	5	351	18	mask.bmp	blankscreen.bmp	wfd4.bmp	blankscreen.bmp	square.bmp
38	real_a	real_bottomright_same_a	6	420	18	mask.bmp	blankscreen.bmp	wmn5.bmp	blankscreen.bmp	circle.bmp
38	real_a	real_topleft_diff_a	7	326	18	mask.bmp	blankscreen.bmp	wmd2.bmp	blankscreen.bmp	square.bmp
38	real_a	real_topright_diff_a	8	420	23	mask.bmp	blankscreen.bmp	wmd3.bmp	blankscreen.bmp	square.bmp
38	real_a	real_topleft_diff_a	9	454	23	mask.bmp	blankscreen.bmp	wfn3.bmp	blankscreen.bmp	square.bmp
38	real_a	real_topright_same_a	10	342	23	mask.bmp	blankscreen.bmp	wmn4.bmp	blankscreen.bmp	square.bmp
38	real_a	real_topright_same_a	11	516	18	mask.bmp	blankscreen.bmp	wfd5.bmp	blankscreen.bmp	circle.bmp
38	real_a	real_bottomright_same_a	12	442	18	mask.bmp	blankscreen.bmp	wmd5.bmp	blankscreen.bmp	circle.bmp
38	real_a	real_topleft_diff_a	13	491	23	mask.bmp	blankscreen.bmp	wfd1.bmp	blankscreen.bmp	square.bmp
38	real_a	real_bottomleft_same_a	14	458	23	mask.bmp	blankscreen.bmp	wmd4.bmp	blankscreen.bmp	square.bmp
38	real_a	real_bottomleft_diff_a	15	459	23	mask.bmp	blankscreen.bmp	wfn1.bmp	blankscreen.bmp	square.bmp
38	real_a	real_topright_diff_a	16	444	18	mask.bmp	blankscreen.bmp	wmn1.bmp	blankscreen.bmp	circle.bmp
38	real_a	real_topright_diff_a	17	517	18	mask.bmp	blankscreen.bmp	wfd2.bmp	blankscreen.bmp	circle.bmp
38	real_a	real_topleft_same_a	18	339	23	mask.bmp	blankscreen.bmp	wfn4.bmp	blankscreen.bmp	square.bmp
38	real_a	real_bottomleft_diff_a	19	368	18	mask.bmp	blankscreen.bmp	wfd3.bmp	blankscreen.bmp	circle.bmp
