subject	blockcode	trialcode	trialnum	latency	response	stimulusitem1	stimulusitem2	stimulusitem3	stimulusitem4	stimulusitem5
9999	practice	practice_topright_same	1	2639	23	mask.bmp	blankscreen.bmp	practice3.jpg	blankscreen.bmp	square.bmp
9999	practice	practice_bottomright_same	2	633	23	mask.bmp	blankscreen.bmp	practice8.jpg	blankscreen.bmp	square.bmp
9999	practice	practice_topleft_same	3	755	18	mask.bmp	blankscreen.bmp	practice1.jpg	blankscreen.bmp	circle.bmp
9999	practice	practice_topright_diff	4	2720	18	mask.bmp	blankscreen.bmp	practice10.jpg	blankscreen.bmp	circle.bmp
9999	practice	practice_bottomright_diff	5	943	18	mask.bmp	blankscreen.bmp	practice12.jpg	blankscreen.bmp	circle.bmp
9999	practice	practice_bottomright_same	6	701	18	mask.bmp	blankscreen.bmp	practice7.jpg	blankscreen.bmp	circle.bmp
9999	practice	practice_topright_same	7	524	18	mask.bmp	blankscreen.bmp	practice4.jpg	blankscreen.bmp	circle.bmp
9999	practice	practice_topleft_same	8	539	18	mask.bmp	blankscreen.bmp	practice2.jpg	blankscreen.bmp	circle.bmp
9999	practice	practice_bottomleft_same	9	1080	18	mask.bmp	blankscreen.bmp	practice5.jpg	blankscreen.bmp	circle.bmp
9999	practice	practice_topleft_diff	10	2137	18	mask.bmp	blankscreen.bmp	practice9.jpg	blankscreen.bmp	circle.bmp
9999	practice	practice_bottomleft_same	11	567	18	mask.bmp	blankscreen.bmp	practice6.jpg	blankscreen.bmp	circle.bmp
9999	practice	practice_bottomleft_diff	12	1675	23	mask.bmp	blankscreen.bmp	practice11.jpg	blankscreen.bmp	square.bmp
9999	real_a	real_bottomright_same_a	1	1125	18	mask.bmp	blankscreen.bmp	wmd5.bmp	blankscreen.bmp	circle.bmp
9999	real_a	real_bottomright_diff_a	2	932	18	mask.bmp	blankscreen.bmp	wfn2.bmp	blankscreen.bmp	circle.bmp
9999	real_a	real_topright_diff_a	3	842	23	mask.bmp	blankscreen.bmp	wmd3.bmp	blankscreen.bmp	square.bmp
9999	real_a	real_topright_diff_a	4	780	18	mask.bmp	blankscreen.bmp	wfd2.bmp	blankscreen.bmp	circle.bmp
9999	real_a	real_bottomleft_diff_a	5	1175	23	mask.bmp	blankscreen.bmp	wmn2.bmp	blankscreen.bmp	square.bmp
9999	real_a	real_bottomright_same_a	6	996	23	mask.bmp	blankscreen.bmp	wmn5.bmp	blankscreen.bmp	square.bmp
9999	real_a	real_topright_same_a	7	503	18	mask.bmp	blankscreen.bmp	wmn4.bmp	blankscreen.bmp	circle.bmp
9999	real_a	real_topleft_same_a	8	598	18	mask.bmp	blankscreen.bmp	wfd4.bmp	blankscreen.bmp	circle.bmp
9999	real_a	real_bottomleft_same_a	9	849	23	mask.bmp	blankscreen.bmp	wfn5.bmp	blankscreen.bmp	square.bmp
9999	real_a	real_topleft_diff_a	10	874	23	mask.bmp	blankscreen.bmp	wmd2.bmp	blankscreen.bmp	square.bmp
9999	real_a	real_topleft_diff_a	11	955	23	mask.bmp	blankscreen.bmp	wfd1.bmp	blankscreen.bmp	square.bmp
9999	real_a	real_topleft_same_a	12	736	18	mask.bmp	blankscreen.bmp	wfn4.bmp	blankscreen.bmp	circle.bmp
9999	real_a	real_bottomleft_same_a	13	1286	23	mask.bmp	blankscreen.bmp	wmd4.bmp	blankscreen.bmp	square.bmp
9999	real_a	real_topleft_diff_a	14	1326	18	mask.bmp	blankscreen.bmp	wfn3.bmp	blankscreen.bmp	circle.bmp
9999	real_a	real_bottomleft_diff_a	15	789	18	mask.bmp	blankscreen.bmp	wfd3.bmp	blankscreen.bmp	circle.bmp
9999	real_a	real_bottomright_diff_a	16	904	23	mask.bmp	blankscreen.bmp	wmd1.bmp	blankscreen.bmp	square.bmp
9999	real_a	real_topright_diff_a	17	1128	18	mask.bmp	blankscreen.bmp	wmn1.bmp	blankscreen.bmp	circle.bmp
9999	real_a	real_topright_same_a	18	806	18	mask.bmp	blankscreen.bmp	wfd5.bmp	blankscreen.bmp	circle.bmp
9999	real_a	real_bottomleft_diff_a	19	946	18	mask.bmp	blankscreen.bmp	wfn1.bmp	blankscreen.bmp	circle.bmp
9999	real_a	real_bottomright_diff_a	20	839	18	mask.bmp	blankscreen.bmp	wmn3.bmp	blankscreen.bmp	circle.bmp
9999	real_b	real_topleft_diff_b	1	800	23	mask.bmp	blankscreen.bmp	wmn6.bmp	blankscreen.bmp	square.bmp
9999	real_b	real_bottomright_diff_b	2	1091	18	mask.bmp	blankscreen.bmp	wmd7.bmp	blankscreen.bmp	circle.bmp
9999	real_b	real_bottomleft_diff_b	3	939	23	mask.bmp	blankscreen.bmp	wmd6.bmp	blankscreen.bmp	circle.bmp
9999	real_b	real_bottomleft_diff_b	4	1809	18	mask.bmp	blankscreen.bmp	wfn7.bmp	blankscreen.bmp	circle.bmp
9999	real_b	real_bottomright_same_b	5	1316	18	mask.bmp	blankscreen.bmp	wfn10.bmp	blankscreen.bmp	circle.bmp
9999	real_b	real_bottomright_same_b	6	659	23	mask.bmp	blankscreen.bmp	wfd10.bmp	blankscreen.bmp	square.bmp
9999	real_b	real_bottomright_diff_b	7	1052	18	mask.bmp	blankscreen.bmp	wfn8.bmp	blankscreen.bmp	circle.bmp
9999	real_b	real_topright_diff_b	8	1413	18	mask.bmp	blankscreen.bmp	wmn7.bmp	blankscreen.bmp	circle.bmp
9999	real_b	real_bottomleft_same_b	9	720	18	mask.bmp	blankscreen.bmp	wmd10.bmp	blankscreen.bmp	circle.bmp
9999	real_b	real_topright_same_b	10	1062	23	mask.bmp	blankscreen.bmp	wmn10.bmp	blankscreen.bmp	square.bmp
9999	real_b	real_bottomright_diff_b	11	1135	18	mask.bmp	blankscreen.bmp	wfd6.bmp	blankscreen.bmp	circle.bmp
9999	real_b	real_topleft_diff_b	12	229	18	mask.bmp	blankscreen.bmp	wfd7.bmp	blankscreen.bmp	circle.bmp
9999	real_b	real_topleft_diff_b	13	991	23	mask.bmp	blankscreen.bmp	wmd8.bmp	blankscreen.bmp	square.bmp
9999	real_b	real_topleft_same_b	14	778	18	mask.bmp	blankscreen.bmp	wmd9.bmp	blankscreen.bmp	square.bmp
9999	real_b	real_topright_same_b	15	702	18	mask.bmp	blankscreen.bmp	wfn9.bmp	blankscreen.bmp	circle.bmp
9999	real_b	real_topleft_same_b	16	1741	23	mask.bmp	blankscreen.bmp	wmn9.bmp	blankscreen.bmp	square.bmp
9999	real_b	real_topright_diff_b	17	939	23	mask.bmp	blankscreen.bmp	wfd8.bmp	blankscreen.bmp	square.bmp
9999	real_b	real_topright_diff_b	18	777	18	mask.bmp	blankscreen.bmp	wfn6.bmp	blankscreen.bmp	circle.bmp
9999	real_b	real_bottomleft_same_b	19	742	18	mask.bmp	blankscreen.bmp	wfd9.bmp	blankscreen.bmp	circle.bmp
9999	real_b	real_bottomleft_diff_b	20	1212	18	mask.bmp	blankscreen.bmp	wmn8.bmp	blankscreen.bmp	circle.bmp
9999	real_c	real_bottomleft_diff_c	1	901	18	mask.bmp	blankscreen.bmp	wfd4.bmp	blankscreen.bmp	square.bmp
9999	real_c	real_topright_same_c	2	1028	23	mask.bmp	blankscreen.bmp	wfn2.bmp	blankscreen.bmp	square.bmp
9999	real_c	real_topleft_same_c	3	711	18	mask.bmp	blankscreen.bmp	wfd1.bmp	blankscreen.bmp	circle.bmp
9999	real_c	real_topright_diff_c	4	822	18	mask.bmp	blankscreen.bmp	wmd4.bmp	blankscreen.bmp	circle.bmp
9999	real_c	real_bottomright_diff_c	5	840	18	mask.bmp	blankscreen.bmp	wfd5.bmp	blankscreen.bmp	circle.bmp
9999	real_c	real_topright_diff_c	6	890	23	mask.bmp	blankscreen.bmp	wfn5.bmp	blankscreen.bmp	square.bmp
9999	real_c	real_bottomright_same_c	7	586	18	mask.bmp	blankscreen.bmp	wmn2.bmp	blankscreen.bmp	square.bmp
9999	real_c	real_bottomleft_same_c	8	1534	23	mask.bmp	blankscreen.bmp	wmn1.bmp	blankscreen.bmp	square.bmp
9999	real_c	real_topleft_diff_c	9	884	18	mask.bmp	blankscreen.bmp	wfd3.bmp	blankscreen.bmp	circle.bmp
9999	real_c	real_bottomright_diff_c	10	1268	18	mask.bmp	blankscreen.bmp	wmd3.bmp	blankscreen.bmp	circle.bmp
9999	real_c	real_topleft_diff_c	11	3340	18	mask.bmp	blankscreen.bmp	wfn4.bmp	blankscreen.bmp	circle.bmp
9999	real_c	real_bottomright_same_c	12	746	23	mask.bmp	blankscreen.bmp	wmd2.bmp	blankscreen.bmp	square.bmp
9999	real_c	real_topright_diff_c	13	928	18	mask.bmp	blankscreen.bmp	wmn3.bmp	blankscreen.bmp	square.bmp
9999	real_c	real_bottomleft_same_c	14	918	18	mask.bmp	blankscreen.bmp	wfd2.bmp	blankscreen.bmp	circle.bmp
9999	real_c	real_bottomright_diff_c	15	765	18	mask.bmp	blankscreen.bmp	wmn4.bmp	blankscreen.bmp	circle.bmp
9999	real_c	real_topleft_same_c	16	809	23	mask.bmp	blankscreen.bmp	wfn1.bmp	blankscreen.bmp	square.bmp
9999	real_c	real_bottomleft_diff_c	17	804	23	mask.bmp	blankscreen.bmp	wmd5.bmp	blankscreen.bmp	square.bmp
9999	real_c	real_topright_same_c	18	760	18	mask.bmp	blankscreen.bmp	wmd1.bmp	blankscreen.bmp	circle.bmp
9999	real_c	real_bottomleft_diff_c	19	1277	23	mask.bmp	blankscreen.bmp	wfn3.bmp	blankscreen.bmp	square.bmp
9999	real_c	real_topleft_diff_c	20	829	23	mask.bmp	blankscreen.bmp	wmn5.bmp	blankscreen.bmp	square.bmp
9999	real_d	real_bottomleft_diff_d	1	2396	18	mask.bmp	blankscreen.bmp	wfd10.bmp	blankscreen.bmp	circle.bmp
9999	real_d	real_bottomleft_same_d	2	615	18	mask.bmp	blankscreen.bmp	wfn6.bmp	blankscreen.bmp	circle.bmp
9999	real_d	real_bottomright_diff_d	3	1570	23	mask.bmp	blankscreen.bmp	wfn9.bmp	blankscreen.bmp	square.bmp
9999	real_d	real_topleft_diff_d	4	830	18	mask.bmp	blankscreen.bmp	wmd9.bmp	blankscreen.bmp	circle.bmp
9999	real_d	real_bottomright_same_d	5	720	18	mask.bmp	blankscreen.bmp	wfn7.bmp	blankscreen.bmp	circle.bmp
9999	real_d	real_topleft_same_d	6	1359	18	mask.bmp	blankscreen.bmp	wmn6.bmp	blankscreen.bmp	square.bmp
9999	real_d	real_bottomleft_same_d	7	2468	23	mask.bmp	blankscreen.bmp	wmn7.bmp	blankscreen.bmp	square.bmp
9999	real_d	real_bottomleft_diff_d	8	805	23	mask.bmp	blankscreen.bmp	wmn9.bmp	blankscreen.bmp	square.bmp
9999	real_d	real_topright_diff_d	9	616	23	mask.bmp	blankscreen.bmp	wfd9.bmp	blankscreen.bmp	square.bmp
9999	real_d	real_topleft_same_d	10	675	23	mask.bmp	blankscreen.bmp	wmd6.bmp	blankscreen.bmp	square.bmp
9999	real_d	real_topright_same_d	11	851	18	mask.bmp	blankscreen.bmp	wmd7.bmp	blankscreen.bmp	circle.bmp
9999	real_d	real_topright_same_d	12	1300	18	mask.bmp	blankscreen.bmp	wfd6.bmp	blankscreen.bmp	square.bmp
9999	real_d	real_bottomright_same_d	13	2043	23	mask.bmp	blankscreen.bmp	wfd7.bmp	blankscreen.bmp	square.bmp
9999	real_d	real_topleft_diff_d	14	854	23	mask.bmp	blankscreen.bmp	wmn8.bmp	blankscreen.bmp	square.bmp
9999	real_d	real_topright_diff_d	15	1247	18	mask.bmp	blankscreen.bmp	wmd10.bmp	blankscreen.bmp	circle.bmp
9999	real_d	real_bottomleft_diff_d	16	736	18	mask.bmp	blankscreen.bmp	wmd8.bmp	blankscreen.bmp	circle.bmp
9999	real_d	real_bottomright_diff_d	17	1534	18	mask.bmp	blankscreen.bmp	wmn10.bmp	blankscreen.bmp	circle.bmp
9999	real_d	real_topright_diff_d	18	1132	23	mask.bmp	blankscreen.bmp	wfn8.bmp	blankscreen.bmp	square.bmp
9999	real_d	real_topleft_diff_d	19	1554	23	mask.bmp	blankscreen.bmp	wfn10.bmp	blankscreen.bmp	square.bmp
9999	real_d	real_bottomright_diff_d	20	647	18	mask.bmp	blankscreen.bmp	wfd8.bmp	blankscreen.bmp	circle.bmp
999	practice	practice_bottomleft_same	1	1305	18	mask.bmp	blankscreen.bmp	practice6.jpg	blankscreen.bmp	circle.bmp
999	practice	practice_bottomleft_diff	2	937	18	mask.bmp	blankscreen.bmp	practice11.jpg	blankscreen.bmp	circle.bmp
999	practice	practice_bottomright_same	3	902	18	mask.bmp	blankscreen.bmp	practice7.jpg	blankscreen.bmp	circle.bmp
999	practice	practice_topright_diff	4	1094	18	mask.bmp	blankscreen.bmp	practice10.jpg	blankscreen.bmp	circle.bmp
999	practice	practice_topleft_diff	5	870	23	mask.bmp	blankscreen.bmp	practice9.jpg	blankscreen.bmp	square.bmp
999	practice	practice_bottomright_diff	6	854	18	mask.bmp	blankscreen.bmp	practice12.jpg	blankscreen.bmp	circle.bmp
999	practice	practice_topleft_same	7	887	18	mask.bmp	blankscreen.bmp	practice1.jpg	blankscreen.bmp	circle.bmp
999	practice	practice_bottomright_same	8	863	18	mask.bmp	blankscreen.bmp	practice8.jpg	blankscreen.bmp	circle.bmp
999	practice	practice_topright_same	9	1000	23	mask.bmp	blankscreen.bmp	practice4.jpg	blankscreen.bmp	square.bmp
999	practice	practice_bottomleft_same	10	835	18	mask.bmp	blankscreen.bmp	practice5.jpg	blankscreen.bmp	circle.bmp
999	practice	practice_topright_same	11	981	23	mask.bmp	blankscreen.bmp	practice3.jpg	blankscreen.bmp	square.bmp
999	practice	practice_topleft_same	12	1057	18	mask.bmp	blankscreen.bmp	practice2.jpg	blankscreen.bmp	circle.bmp
9999	practice	practice_topright_same	1	742	23	mask.bmp	blankscreen.bmp	practice3.jpg	blankscreen.bmp	square.bmp
9999	practice	practice_topleft_same	2	604	23	mask.bmp	blankscreen.bmp	practice1.jpg	blankscreen.bmp	square.bmp
9999	practice	practice_bottomleft_same	3	575	18	mask.bmp	blankscreen.bmp	practice5.jpg	blankscreen.bmp	circle.bmp
9999	practice	practice_bottomleft_same	4	1019	23	mask.bmp	blankscreen.bmp	practice6.jpg	blankscreen.bmp	square.bmp
9999	practice	practice_topleft_diff	5	926	18	mask.bmp	blankscreen.bmp	practice9.jpg	blankscreen.bmp	circle.bmp
9999	practice	practice_topright_same	6	860	23	mask.bmp	blankscreen.bmp	practice4.jpg	blankscreen.bmp	square.bmp
9999	practice	practice_bottomright_diff	7	982	18	mask.bmp	blankscreen.bmp	practice12.jpg	blankscreen.bmp	circle.bmp
9999	practice	practice_bottomleft_diff	8	865	18	mask.bmp	blankscreen.bmp	practice11.jpg	blankscreen.bmp	circle.bmp
9999	practice	practice_topright_diff	9	882	23	mask.bmp	blankscreen.bmp	practice10.jpg	blankscreen.bmp	square.bmp
9999	practice	practice_topleft_same	10	626	23	mask.bmp	blankscreen.bmp	practice2.jpg	blankscreen.bmp	square.bmp
9999	practice	practice_bottomright_same	11	524	23	mask.bmp	blankscreen.bmp	practice8.jpg	blankscreen.bmp	square.bmp
9999	practice	practice_bottomright_same	12	835	18	mask.bmp	blankscreen.bmp	practice7.jpg	blankscreen.bmp	circle.bmp
9999	real_a	real_topleft_diff_a	1	968	18	mask.bmp	blankscreen.bmp	wmd2.bmp	blankscreen.bmp	circle.bmp
9999	real_a	real_topright_same_a	2	461	23	mask.bmp	blankscreen.bmp	wfd5.bmp	blankscreen.bmp	square.bmp
9999	real_a	real_bottomright_diff_a	3	782	18	mask.bmp	blankscreen.bmp	wmd1.bmp	blankscreen.bmp	circle.bmp
9999	real_a	real_bottomleft_diff_a	4	618	18	mask.bmp	blankscreen.bmp	wmn2.bmp	blankscreen.bmp	circle.bmp
9999	real_a	real_bottomright_diff_a	5	581	18	mask.bmp	blankscreen.bmp	wfn2.bmp	blankscreen.bmp	circle.bmp
9999	real_a	real_topright_same_a	6	712	18	mask.bmp	blankscreen.bmp	wmn4.bmp	blankscreen.bmp	circle.bmp
9999	real_a	real_bottomright_diff_a	7	703	18	mask.bmp	blankscreen.bmp	wmn3.bmp	blankscreen.bmp	circle.bmp
9999	real_a	real_bottomleft_diff_a	8	678	23	mask.bmp	blankscreen.bmp	wfn1.bmp	blankscreen.bmp	square.bmp
9999	real_a	real_bottomleft_same_a	9	606	18	mask.bmp	blankscreen.bmp	wmd4.bmp	blankscreen.bmp	circle.bmp
9999	real_a	real_topright_diff_a	10	738	23	mask.bmp	blankscreen.bmp	wfd2.bmp	blankscreen.bmp	square.bmp
9999	real_a	real_bottomright_same_a	11	831	18	mask.bmp	blankscreen.bmp	wmn5.bmp	blankscreen.bmp	circle.bmp
9999	real_a	real_bottomleft_diff_a	12	1065	23	mask.bmp	blankscreen.bmp	wfd3.bmp	blankscreen.bmp	square.bmp
9999	real_a	real_bottomright_same_a	13	1546	23	mask.bmp	blankscreen.bmp	wmd5.bmp	blankscreen.bmp	square.bmp
9999	real_a	real_topleft_diff_a	14	1039	18	mask.bmp	blankscreen.bmp	wfn3.bmp	blankscreen.bmp	circle.bmp
9999	real_a	real_topright_diff_a	15	1665	23	mask.bmp	blankscreen.bmp	wmd3.bmp	blankscreen.bmp	square.bmp
9999	real_a	real_topleft_same_a	16	578	18	mask.bmp	blankscreen.bmp	wfd4.bmp	blankscreen.bmp	circle.bmp
9999	real_a	real_topright_diff_a	17	782	23	mask.bmp	blankscreen.bmp	wmn1.bmp	blankscreen.bmp	square.bmp
9999	real_a	real_topleft_diff_a	18	602	23	mask.bmp	blankscreen.bmp	wfd1.bmp	blankscreen.bmp	square.bmp
9999	real_a	real_topleft_same_a	19	621	18	mask.bmp	blankscreen.bmp	wfn4.bmp	blankscreen.bmp	circle.bmp
9999	real_a	real_bottomleft_same_a	20	952	23	mask.bmp	blankscreen.bmp	wfn5.bmp	blankscreen.bmp	square.bmp
999	practice	practice_bottomleft_same	1	797	23	mask.bmp	blankscreen.bmp	practice5.jpg	blankscreen.bmp	square.bmp
999	practice	practice_bottomright_diff	2	433	18	mask.bmp	blankscreen.bmp	practice12.jpg	blankscreen.bmp	circle.bmp
999	practice	practice_bottomright_same	3	554	18	mask.bmp	blankscreen.bmp	practice8.jpg	blankscreen.bmp	circle.bmp
999	practice	practice_topright_diff	4	447	23	mask.bmp	blankscreen.bmp	practice10.jpg	blankscreen.bmp	square.bmp
999	practice	practice_topright_same	5	465	18	mask.bmp	blankscreen.bmp	practice4.jpg	blankscreen.bmp	square.bmp
999	practice	practice_topleft_same	6	617	18	mask.bmp	blankscreen.bmp	practice2.jpg	blankscreen.bmp	circle.bmp
999	practice	practice_topleft_diff	7	339	23	mask.bmp	blankscreen.bmp	practice9.jpg	blankscreen.bmp	square.bmp
999	practice	practice_bottomleft_diff	8	505	18	mask.bmp	blankscreen.bmp	practice11.jpg	blankscreen.bmp	circle.bmp
999	practice	practice_bottomright_same	9	504	18	mask.bmp	blankscreen.bmp	practice7.jpg	blankscreen.bmp	circle.bmp
999	practice	practice_topright_same	10	351	23	mask.bmp	blankscreen.bmp	practice3.jpg	blankscreen.bmp	square.bmp
999	practice	practice_bottomleft_same	11	413	23	mask.bmp	blankscreen.bmp	practice6.jpg	blankscreen.bmp	square.bmp
999	practice	practice_topleft_same	12	439	23	mask.bmp	blankscreen.bmp	practice1.jpg	blankscreen.bmp	square.bmp
999	real_a	real_bottomleft_diff_a	1	535	18	mask.bmp	blankscreen.bmp	wfd3.bmp	blankscreen.bmp	circle.bmp
999	real_a	real_bottomleft_same_a	2	357	18	mask.bmp	blankscreen.bmp	wfn5.bmp	blankscreen.bmp	circle.bmp
999	real_a	real_topright_same_a	3	338	18	mask.bmp	blankscreen.bmp	wmn4.bmp	blankscreen.bmp	circle.bmp
999	real_a	real_bottomright_same_a	4	352	18	mask.bmp	blankscreen.bmp	wmn5.bmp	blankscreen.bmp	circle.bmp
999	real_a	real_bottomright_diff_a	5	333	23	mask.bmp	blankscreen.bmp	wmn3.bmp	blankscreen.bmp	square.bmp
999	real_a	real_bottomright_same_a	6	395	23	mask.bmp	blankscreen.bmp	wmd5.bmp	blankscreen.bmp	circle.bmp
999	real_a	real_bottomright_diff_a	7	463	23	mask.bmp	blankscreen.bmp	wfn2.bmp	blankscreen.bmp	square.bmp
999	real_a	real_topleft_same_a	8	511	23	mask.bmp	blankscreen.bmp	wfd4.bmp	blankscreen.bmp	square.bmp
999	real_a	real_topright_diff_a	9	526	18	mask.bmp	blankscreen.bmp	wmd3.bmp	blankscreen.bmp	square.bmp
999	real_a	real_topleft_diff_a	10	637	23	mask.bmp	blankscreen.bmp	wfn3.bmp	blankscreen.bmp	square.bmp
999	real_a	real_bottomleft_diff_a	11	335	18	mask.bmp	blankscreen.bmp	wfn1.bmp	blankscreen.bmp	circle.bmp
999	real_a	real_bottomleft_same_a	12	564	23	mask.bmp	blankscreen.bmp	wmd4.bmp	blankscreen.bmp	square.bmp
999	real_a	real_topright_diff_a	13	393	23	mask.bmp	blankscreen.bmp	wmn1.bmp	blankscreen.bmp	square.bmp
999	real_a	real_topright_same_a	14	597	18	mask.bmp	blankscreen.bmp	wfd5.bmp	blankscreen.bmp	circle.bmp
999	real_a	real_topleft_diff_a	15	496	18	mask.bmp	blankscreen.bmp	wmd2.bmp	blankscreen.bmp	circle.bmp
999	real_a	real_bottomright_diff_a	16	391	18	mask.bmp	blankscreen.bmp	wmd1.bmp	blankscreen.bmp	circle.bmp
999	real_a	real_topleft_same_a	17	387	18	mask.bmp	blankscreen.bmp	wfn4.bmp	blankscreen.bmp	circle.bmp
999	real_a	real_bottomleft_diff_a	18	454	18	mask.bmp	blankscreen.bmp	wmn2.bmp	blankscreen.bmp	circle.bmp
999	real_a	real_topleft_diff_a	19	296	23	mask.bmp	blankscreen.bmp	wfd1.bmp	blankscreen.bmp	square.bmp
999	real_a	real_topright_diff_a	20	519	18	mask.bmp	blankscreen.bmp	wfd2.bmp	blankscreen.bmp	circle.bmp
999	real_b	real_topleft_diff_b	1	473	23	mask.bmp	blankscreen.bmp	wfd7.bmp	blankscreen.bmp	square.bmp
999	real_b	real_bottomleft_diff_b	2	425	23	mask.bmp	blankscreen.bmp	wmd6.bmp	blankscreen.bmp	square.bmp
999	real_b	real_topright_same_b	3	340	23	mask.bmp	blankscreen.bmp	wmn10.bmp	blankscreen.bmp	square.bmp
999	real_b	real_bottomright_same_b	4	410	18	mask.bmp	blankscreen.bmp	wfd10.bmp	blankscreen.bmp	circle.bmp
999	real_b	real_topleft_diff_b	5	453	23	mask.bmp	blankscreen.bmp	wmd8.bmp	blankscreen.bmp	square.bmp
999	real_b	real_bottomleft_diff_b	6	510	18	mask.bmp	blankscreen.bmp	wmn8.bmp	blankscreen.bmp	circle.bmp
999	real_b	real_bottomright_diff_b	7	365	23	mask.bmp	blankscreen.bmp	wfd6.bmp	blankscreen.bmp	square.bmp
999	real_b	real_bottomleft_diff_b	8	362	23	mask.bmp	blankscreen.bmp	wfn7.bmp	blankscreen.bmp	square.bmp
999	real_b	real_topleft_same_b	9	479	18	mask.bmp	blankscreen.bmp	wmd9.bmp	blankscreen.bmp	circle.bmp
999	real_b	real_topleft_same_b	10	414	18	mask.bmp	blankscreen.bmp	wmn9.bmp	blankscreen.bmp	circle.bmp
999	real_b	real_topright_diff_b	11	313	23	mask.bmp	blankscreen.bmp	wfn6.bmp	blankscreen.bmp	square.bmp
999	real_b	real_bottomright_diff_b	12	367	18	mask.bmp	blankscreen.bmp	wfn8.bmp	blankscreen.bmp	circle.bmp
999	real_b	real_topright_same_b	13	556	18	mask.bmp	blankscreen.bmp	wfn9.bmp	blankscreen.bmp	circle.bmp
999	real_b	real_topright_diff_b	14	361	18	mask.bmp	blankscreen.bmp	wmn7.bmp	blankscreen.bmp	circle.bmp
999	real_b	real_topleft_diff_b	15	342	23	mask.bmp	blankscreen.bmp	wmn6.bmp	blankscreen.bmp	square.bmp
999	real_b	real_bottomright_diff_b	16	612	23	mask.bmp	blankscreen.bmp	wmd7.bmp	blankscreen.bmp	square.bmp
999	real_b	real_bottomleft_same_b	17	447	23	mask.bmp	blankscreen.bmp	wmd10.bmp	blankscreen.bmp	square.bmp
999	real_b	real_topright_diff_b	18	384	23	mask.bmp	blankscreen.bmp	wfd8.bmp	blankscreen.bmp	square.bmp
999	real_b	real_bottomright_same_b	19	396	18	mask.bmp	blankscreen.bmp	wfn10.bmp	blankscreen.bmp	circle.bmp
999	real_b	real_bottomleft_same_b	20	367	18	mask.bmp	blankscreen.bmp	wfd9.bmp	blankscreen.bmp	circle.bmp
999	real_c	real_topleft_diff_c	1	448	23	mask.bmp	blankscreen.bmp	wmn5.bmp	blankscreen.bmp	square.bmp
999	real_c	real_bottomright_same_c	2	377	23	mask.bmp	blankscreen.bmp	wmn2.bmp	blankscreen.bmp	square.bmp
999	real_c	real_bottomleft_same_c	3	357	23	mask.bmp	blankscreen.bmp	wmn1.bmp	blankscreen.bmp	square.bmp
999	real_c	real_topleft_diff_c	4	402	18	mask.bmp	blankscreen.bmp	wfn4.bmp	blankscreen.bmp	circle.bmp
999	real_c	real_bottomright_diff_c	5	334	23	mask.bmp	blankscreen.bmp	wfd5.bmp	blankscreen.bmp	square.bmp
999	real_c	real_topright_diff_c	6	363	23	mask.bmp	blankscreen.bmp	wmn3.bmp	blankscreen.bmp	square.bmp
999	real_c	real_topright_diff_c	7	488	18	mask.bmp	blankscreen.bmp	wfn5.bmp	blankscreen.bmp	circle.bmp
999	real_c	real_bottomleft_diff_c	8	288	23	mask.bmp	blankscreen.bmp	wfn3.bmp	blankscreen.bmp	square.bmp
999	real_c	real_topleft_diff_c	9	336	23	mask.bmp	blankscreen.bmp	wfd3.bmp	blankscreen.bmp	square.bmp
999	real_c	real_bottomleft_same_c	10	469	18	mask.bmp	blankscreen.bmp	wfd2.bmp	blankscreen.bmp	circle.bmp
999	real_c	real_bottomright_same_c	11	366	23	mask.bmp	blankscreen.bmp	wmd2.bmp	blankscreen.bmp	square.bmp
999	real_c	real_topright_same_c	12	434	18	mask.bmp	blankscreen.bmp	wfn2.bmp	blankscreen.bmp	circle.bmp
999	real_c	real_topleft_same_c	13	396	18	mask.bmp	blankscreen.bmp	wfd1.bmp	blankscreen.bmp	circle.bmp
999	real_c	real_bottomright_diff_c	14	392	23	mask.bmp	blankscreen.bmp	wmd3.bmp	blankscreen.bmp	square.bmp
999	real_c	real_bottomright_diff_c	15	364	18	mask.bmp	blankscreen.bmp	wmn4.bmp	blankscreen.bmp	square.bmp
999	real_c	real_bottomleft_diff_c	16	408	23	mask.bmp	blankscreen.bmp	wmd5.bmp	blankscreen.bmp	square.bmp
999	real_c	real_topright_same_c	17	523	18	mask.bmp	blankscreen.bmp	wmd1.bmp	blankscreen.bmp	circle.bmp
999	real_c	real_bottomleft_diff_c	18	290	23	mask.bmp	blankscreen.bmp	wfd4.bmp	blankscreen.bmp	square.bmp
999	real_c	real_topright_diff_c	19	449	18	mask.bmp	blankscreen.bmp	wmd4.bmp	blankscreen.bmp	circle.bmp
999	real_c	real_topleft_same_c	20	378	23	mask.bmp	blankscreen.bmp	wfn1.bmp	blankscreen.bmp	circle.bmp
999	real_d	real_topleft_diff_d	1	430	23	mask.bmp	blankscreen.bmp	wfn10.bmp	blankscreen.bmp	circle.bmp
999	real_d	real_bottomright_diff_d	2	408	18	mask.bmp	blankscreen.bmp	wfd8.bmp	blankscreen.bmp	circle.bmp
999	real_d	real_topright_same_d	3	475	23	mask.bmp	blankscreen.bmp	wfd6.bmp	blankscreen.bmp	square.bmp
999	real_d	real_bottomright_same_d	4	355	23	mask.bmp	blankscreen.bmp	wfd7.bmp	blankscreen.bmp	square.bmp
999	real_d	real_bottomright_diff_d	5	424	23	mask.bmp	blankscreen.bmp	wmn10.bmp	blankscreen.bmp	square.bmp
999	real_d	real_bottomright_same_d	6	427	18	mask.bmp	blankscreen.bmp	wfn7.bmp	blankscreen.bmp	circle.bmp
999	real_d	real_bottomleft_diff_d	7	613	18	mask.bmp	blankscreen.bmp	wmd8.bmp	blankscreen.bmp	square.bmp
999	real_d	real_bottomright_diff_d	8	416	18	mask.bmp	blankscreen.bmp	wfn9.bmp	blankscreen.bmp	circle.bmp
999	real_d	real_bottomleft_same_d	9	474	18	mask.bmp	blankscreen.bmp	wfn6.bmp	blankscreen.bmp	circle.bmp
999	real_d	real_topleft_diff_d	10	291	23	mask.bmp	blankscreen.bmp	wmd9.bmp	blankscreen.bmp	square.bmp
999	real_d	real_topleft_same_d	11	427	18	mask.bmp	blankscreen.bmp	wmn6.bmp	blankscreen.bmp	circle.bmp
999	real_d	real_topright_diff_d	12	365	18	mask.bmp	blankscreen.bmp	wmd10.bmp	blankscreen.bmp	square.bmp
999	real_d	real_topright_same_d	13	466	23	mask.bmp	blankscreen.bmp	wmd7.bmp	blankscreen.bmp	square.bmp
999	real_d	real_topright_diff_d	14	378	23	mask.bmp	blankscreen.bmp	wfn8.bmp	blankscreen.bmp	circle.bmp
999	real_d	real_bottomleft_same_d	15	415	23	mask.bmp	blankscreen.bmp	wmn7.bmp	blankscreen.bmp	square.bmp
999	real_d	real_bottomleft_diff_d	16	433	23	mask.bmp	blankscreen.bmp	wmn9.bmp	blankscreen.bmp	square.bmp
999	real_d	real_topright_diff_d	17	331	23	mask.bmp	blankscreen.bmp	wfd9.bmp	blankscreen.bmp	square.bmp
999	real_d	real_topleft_same_d	18	361	23	mask.bmp	blankscreen.bmp	wmd6.bmp	blankscreen.bmp	square.bmp
999	real_d	real_topleft_diff_d	19	342	18	mask.bmp	blankscreen.bmp	wmn8.bmp	blankscreen.bmp	circle.bmp
999	real_d	real_bottomleft_diff_d	20	363	18	mask.bmp	blankscreen.bmp	wfd10.bmp	blankscreen.bmp	circle.bmp
333	practice	practice_bottomright_same	1	304	18	mask.bmp	blankscreen.bmp	practice8.jpg	blankscreen.bmp	circle.bmp
333	practice	practice_topright_diff	2	343	18	mask.bmp	blankscreen.bmp	practice10.jpg	blankscreen.bmp	circle.bmp
333	practice	practice_bottomleft_diff	3	300	23	mask.bmp	blankscreen.bmp	practice11.jpg	blankscreen.bmp	square.bmp
333	practice	practice_topright_same	4	348	23	mask.bmp	blankscreen.bmp	practice3.jpg	blankscreen.bmp	square.bmp
333	practice	practice_bottomleft_same	5	321	18	mask.bmp	blankscreen.bmp	practice6.jpg	blankscreen.bmp	circle.bmp
333	practice	practice_topleft_same	6	295	18	mask.bmp	blankscreen.bmp	practice1.jpg	blankscreen.bmp	circle.bmp
333	practice	practice_topleft_same	7	326	18	mask.bmp	blankscreen.bmp	practice2.jpg	blankscreen.bmp	square.bmp
333	practice	practice_bottomright_same	8	421	23	mask.bmp	blankscreen.bmp	practice7.jpg	blankscreen.bmp	square.bmp
333	practice	practice_topright_same	9	423	18	mask.bmp	blankscreen.bmp	practice4.jpg	blankscreen.bmp	circle.bmp
333	practice	practice_bottomleft_same	10	378	23	mask.bmp	blankscreen.bmp	practice5.jpg	blankscreen.bmp	square.bmp
333	practice	practice_topleft_diff	11	510	23	mask.bmp	blankscreen.bmp	practice9.jpg	blankscreen.bmp	square.bmp
333	practice	practice_bottomright_diff	12	461	23	mask.bmp	blankscreen.bmp	practice12.jpg	blankscreen.bmp	square.bmp
333	real_a	real_bottomleft_same_a	1	535	23	mask.bmp	blankscreen.bmp	wmd4.bmp	blankscreen.bmp	square.bmp
333	real_a	real_topright_diff_a	2	525	23	mask.bmp	blankscreen.bmp	wmd3.bmp	blankscreen.bmp	square.bmp
333	real_a	real_bottomleft_diff_a	3	452	23	mask.bmp	blankscreen.bmp	wfn1.bmp	blankscreen.bmp	square.bmp
333	real_a	real_topleft_diff_a	4	405	18	mask.bmp	blankscreen.bmp	wmd2.bmp	blankscreen.bmp	circle.bmp
333	real_a	real_topright_same_a	5	472	18	mask.bmp	blankscreen.bmp	wmn4.bmp	blankscreen.bmp	circle.bmp
333	real_a	real_topright_diff_a	6	472	18	mask.bmp	blankscreen.bmp	wfd2.bmp	blankscreen.bmp	circle.bmp
333	real_a	real_bottomleft_diff_a	7	417	23	mask.bmp	blankscreen.bmp	wmn2.bmp	blankscreen.bmp	square.bmp
333	real_a	real_topright_same_a	8	459	18	mask.bmp	blankscreen.bmp	wfd5.bmp	blankscreen.bmp	circle.bmp
333	real_a	real_topleft_diff_a	9	492	23	mask.bmp	blankscreen.bmp	wfd1.bmp	blankscreen.bmp	square.bmp
333	real_a	real_bottomright_diff_a	10	428	18	mask.bmp	blankscreen.bmp	wmn3.bmp	blankscreen.bmp	square.bmp
333	real_a	real_topleft_same_a	11	511	23	mask.bmp	blankscreen.bmp	wfn4.bmp	blankscreen.bmp	square.bmp
333	real_a	real_bottomright_diff_a	12	350	18	mask.bmp	blankscreen.bmp	wmd1.bmp	blankscreen.bmp	square.bmp
333	real_a	real_bottomright_same_a	13	491	18	mask.bmp	blankscreen.bmp	wmd5.bmp	blankscreen.bmp	square.bmp
333	real_a	real_bottomleft_diff_a	14	499	23	mask.bmp	blankscreen.bmp	wfd3.bmp	blankscreen.bmp	square.bmp
333	real_a	real_bottomright_diff_a	15	474	18	mask.bmp	blankscreen.bmp	wfn2.bmp	blankscreen.bmp	circle.bmp
333	real_a	real_topleft_diff_a	16	411	18	mask.bmp	blankscreen.bmp	wfn3.bmp	blankscreen.bmp	circle.bmp
333	real_a	real_bottomright_same_a	17	469	18	mask.bmp	blankscreen.bmp	wmn5.bmp	blankscreen.bmp	circle.bmp
333	real_a	real_topright_diff_a	18	366	18	mask.bmp	blankscreen.bmp	wmn1.bmp	blankscreen.bmp	circle.bmp
333	real_a	real_bottomleft_same_a	19	362	18	mask.bmp	blankscreen.bmp	wfn5.bmp	blankscreen.bmp	circle.bmp
333	real_a	real_topleft_same_a	20	383	23	mask.bmp	blankscreen.bmp	wfd4.bmp	blankscreen.bmp	square.bmp
333	real_b	real_topleft_diff_b	1	441	23	mask.bmp	blankscreen.bmp	wmn6.bmp	blankscreen.bmp	square.bmp
333	real_b	real_topright_same_b	2	322	23	mask.bmp	blankscreen.bmp	wfn9.bmp	blankscreen.bmp	square.bmp
333	real_b	real_topright_diff_b	3	329	18	mask.bmp	blankscreen.bmp	wmn7.bmp	blankscreen.bmp	square.bmp
333	real_b	real_bottomleft_diff_b	4	502	18	mask.bmp	blankscreen.bmp	wfn7.bmp	blankscreen.bmp	circle.bmp
333	real_b	real_topright_diff_b	5	590	23	mask.bmp	blankscreen.bmp	wfn6.bmp	blankscreen.bmp	circle.bmp
333	real_b	real_topleft_diff_b	6	553	23	mask.bmp	blankscreen.bmp	wfd7.bmp	blankscreen.bmp	square.bmp
333	real_b	real_bottomleft_same_b	7	423	18	mask.bmp	blankscreen.bmp	wfd9.bmp	blankscreen.bmp	circle.bmp
333	real_b	real_bottomright_same_b	8	361	23	mask.bmp	blankscreen.bmp	wfd10.bmp	blankscreen.bmp	square.bmp
333	real_b	real_bottomright_diff_b	9	398	18	mask.bmp	blankscreen.bmp	wfn8.bmp	blankscreen.bmp	circle.bmp
333	real_b	real_bottomright_diff_b	10	433	23	mask.bmp	blankscreen.bmp	wmd7.bmp	blankscreen.bmp	square.bmp
333	real_b	real_bottomright_diff_b	11	411	18	mask.bmp	blankscreen.bmp	wfd6.bmp	blankscreen.bmp	square.bmp
333	real_b	real_topleft_diff_b	12	886	18	mask.bmp	blankscreen.bmp	wmd8.bmp	blankscreen.bmp	circle.bmp
333	real_b	real_bottomleft_diff_b	13	454	18	mask.bmp	blankscreen.bmp	wmn8.bmp	blankscreen.bmp	square.bmp
333	real_b	real_topright_same_b	14	591	18	mask.bmp	blankscreen.bmp	wmn10.bmp	blankscreen.bmp	circle.bmp
333	real_b	real_topleft_same_b	15	539	23	mask.bmp	blankscreen.bmp	wmd9.bmp	blankscreen.bmp	square.bmp
333	real_b	real_bottomleft_diff_b	16	465	18	mask.bmp	blankscreen.bmp	wmd6.bmp	blankscreen.bmp	circle.bmp
333	real_b	real_bottomright_same_b	17	433	23	mask.bmp	blankscreen.bmp	wfn10.bmp	blankscreen.bmp	circle.bmp
333	real_b	real_topright_diff_b	18	459	23	mask.bmp	blankscreen.bmp	wfd8.bmp	blankscreen.bmp	square.bmp
333	real_b	real_bottomleft_same_b	19	484	18	mask.bmp	blankscreen.bmp	wmd10.bmp	blankscreen.bmp	square.bmp
333	real_b	real_topleft_same_b	20	532	18	mask.bmp	blankscreen.bmp	wmn9.bmp	blankscreen.bmp	circle.bmp
333	real_c	real_bottomleft_same_c	1	485	23	mask.bmp	blankscreen.bmp	wfd2.bmp	blankscreen.bmp	square.bmp
333	real_c	real_topright_diff_c	2	477	23	mask.bmp	blankscreen.bmp	wmd4.bmp	blankscreen.bmp	square.bmp
333	real_c	real_bottomright_same_c	3	542	23	mask.bmp	blankscreen.bmp	wmn2.bmp	blankscreen.bmp	square.bmp
333	real_c	real_topleft_diff_c	4	396	18	mask.bmp	blankscreen.bmp	wfn4.bmp	blankscreen.bmp	circle.bmp
333	real_c	real_topleft_diff_c	5	351	23	mask.bmp	blankscreen.bmp	wfd3.bmp	blankscreen.bmp	square.bmp
333	real_c	real_bottomright_same_c	6	444	18	mask.bmp	blankscreen.bmp	wmd2.bmp	blankscreen.bmp	circle.bmp
333	real_c	real_topleft_diff_c	7	382	23	mask.bmp	blankscreen.bmp	wmn5.bmp	blankscreen.bmp	square.bmp
333	real_c	real_bottomright_diff_c	8	321	18	mask.bmp	blankscreen.bmp	wmd3.bmp	blankscreen.bmp	circle.bmp
333	real_c	real_topright_same_c	9	312	23	mask.bmp	blankscreen.bmp	wmd1.bmp	blankscreen.bmp	square.bmp
333	real_c	real_topleft_same_c	10	383	23	mask.bmp	blankscreen.bmp	wfd1.bmp	blankscreen.bmp	square.bmp
333	real_c	real_topright_same_c	11	355	23	mask.bmp	blankscreen.bmp	wfn2.bmp	blankscreen.bmp	square.bmp
333	real_c	real_topleft_same_c	12	368	23	mask.bmp	blankscreen.bmp	wfn1.bmp	blankscreen.bmp	square.bmp
333	real_c	real_topright_diff_c	13	380	18	mask.bmp	blankscreen.bmp	wmn3.bmp	blankscreen.bmp	circle.bmp
333	real_c	real_bottomleft_same_c	14	400	23	mask.bmp	blankscreen.bmp	wmn1.bmp	blankscreen.bmp	square.bmp
333	real_c	real_bottomleft_diff_c	15	467	23	mask.bmp	blankscreen.bmp	wfd4.bmp	blankscreen.bmp	square.bmp
333	real_c	real_bottomleft_diff_c	16	380	18	mask.bmp	blankscreen.bmp	wmd5.bmp	blankscreen.bmp	circle.bmp
333	real_c	real_bottomright_diff_c	17	463	18	mask.bmp	blankscreen.bmp	wfd5.bmp	blankscreen.bmp	circle.bmp
333	real_c	real_bottomright_diff_c	18	432	23	mask.bmp	blankscreen.bmp	wmn4.bmp	blankscreen.bmp	circle.bmp
333	real_c	real_bottomleft_diff_c	19	490	18	mask.bmp	blankscreen.bmp	wfn3.bmp	blankscreen.bmp	circle.bmp
333	real_c	real_topright_diff_c	20	394	18	mask.bmp	blankscreen.bmp	wfn5.bmp	blankscreen.bmp	circle.bmp
333	real_d	real_bottomleft_same_d	1	407	18	mask.bmp	blankscreen.bmp	wmn7.bmp	blankscreen.bmp	circle.bmp
333	real_d	real_topleft_same_d	2	314	23	mask.bmp	blankscreen.bmp	wmn6.bmp	blankscreen.bmp	square.bmp
333	real_d	real_bottomleft_diff_d	3	561	23	mask.bmp	blankscreen.bmp	wmn9.bmp	blankscreen.bmp	square.bmp
333	real_d	real_bottomright_diff_d	4	446	23	mask.bmp	blankscreen.bmp	wfd8.bmp	blankscreen.bmp	square.bmp
333	real_d	real_topright_diff_d	5	455	23	mask.bmp	blankscreen.bmp	wfn8.bmp	blankscreen.bmp	square.bmp
333	real_d	real_topleft_same_d	6	328	18	mask.bmp	blankscreen.bmp	wmd6.bmp	blankscreen.bmp	circle.bmp
333	real_d	real_bottomleft_same_d	7	343	18	mask.bmp	blankscreen.bmp	wfn6.bmp	blankscreen.bmp	circle.bmp
333	real_d	real_topright_diff_d	8	341	18	mask.bmp	blankscreen.bmp	wfd9.bmp	blankscreen.bmp	square.bmp
333	real_d	real_topleft_diff_d	9	442	18	mask.bmp	blankscreen.bmp	wmn8.bmp	blankscreen.bmp	circle.bmp
333	real_d	real_bottomleft_diff_d	10	508	23	mask.bmp	blankscreen.bmp	wfd10.bmp	blankscreen.bmp	circle.bmp
333	real_d	real_topright_same_d	11	563	18	mask.bmp	blankscreen.bmp	wmd7.bmp	blankscreen.bmp	square.bmp
333	real_d	real_topright_same_d	12	519	23	mask.bmp	blankscreen.bmp	wfd6.bmp	blankscreen.bmp	square.bmp
333	real_d	real_bottomright_same_d	13	438	23	mask.bmp	blankscreen.bmp	wfd7.bmp	blankscreen.bmp	square.bmp
333	real_d	real_topleft_diff_d	14	464	23	mask.bmp	blankscreen.bmp	wfn10.bmp	blankscreen.bmp	square.bmp
333	real_d	real_topright_diff_d	15	448	23	mask.bmp	blankscreen.bmp	wmd10.bmp	blankscreen.bmp	square.bmp
333	real_d	real_bottomright_diff_d	16	353	18	mask.bmp	blankscreen.bmp	wmn10.bmp	blankscreen.bmp	square.bmp
333	real_d	real_topleft_diff_d	17	494	23	mask.bmp	blankscreen.bmp	wmd9.bmp	blankscreen.bmp	square.bmp
333	real_d	real_bottomleft_diff_d	18	350	23	mask.bmp	blankscreen.bmp	wmd8.bmp	blankscreen.bmp	square.bmp
333	real_d	real_bottomright_diff_d	19	371	23	mask.bmp	blankscreen.bmp	wfn9.bmp	blankscreen.bmp	square.bmp
333	real_d	real_bottomright_same_d	20	400	18	mask.bmp	blankscreen.bmp	wfn7.bmp	blankscreen.bmp	circle.bmp
999	practice	practice_bottomright_same	1	663	23	mask.bmp	blankscreen.bmp	practice8.jpg	blankscreen.bmp	square.bmp
999	practice	practice_topright_same	2	639	18	mask.bmp	blankscreen.bmp	practice3.jpg	blankscreen.bmp	circle.bmp
999	practice	practice_bottomleft_same	3	1553	18	mask.bmp	blankscreen.bmp	practice6.jpg	blankscreen.bmp	circle.bmp
999	practice	practice_topleft_same	4	726	23	mask.bmp	blankscreen.bmp	practice1.jpg	blankscreen.bmp	square.bmp
999	practice	practice_topleft_same	5	637	23	mask.bmp	blankscreen.bmp	practice2.jpg	blankscreen.bmp	square.bmp
999	practice	practice_bottomleft_same	6	719	18	mask.bmp	blankscreen.bmp	practice5.jpg	blankscreen.bmp	circle.bmp
999	practice	practice_bottomleft_diff	7	1173	23	mask.bmp	blankscreen.bmp	practice11.jpg	blankscreen.bmp	square.bmp
999	practice	practice_bottomright_diff	8	1138	23	mask.bmp	blankscreen.bmp	practice12.jpg	blankscreen.bmp	square.bmp
999	practice	practice_topright_diff	9	784	18	mask.bmp	blankscreen.bmp	practice10.jpg	blankscreen.bmp	circle.bmp
999	practice	practice_bottomright_same	10	1044	18	mask.bmp	blankscreen.bmp	practice7.jpg	blankscreen.bmp	circle.bmp
999	practice	practice_topright_same	11	629	23	mask.bmp	blankscreen.bmp	practice4.jpg	blankscreen.bmp	square.bmp
999	practice	practice_topleft_diff	12	927	18	mask.bmp	blankscreen.bmp	practice9.jpg	blankscreen.bmp	circle.bmp
999	real_a	real_bottomright_diff_a	1	715	23	mask.bmp	blankscreen.bmp	wmn3.bmp	blankscreen.bmp	square.bmp
999	real_a	real_topright_same_a	2	858	23	mask.bmp	blankscreen.bmp	wfd5.bmp	blankscreen.bmp	square.bmp
999	real_a	real_bottomright_same_a	3	491	23	mask.bmp	blankscreen.bmp	wmn5.bmp	blankscreen.bmp	square.bmp
999	real_a	real_topleft_diff_a	4	635	18	mask.bmp	blankscreen.bmp	wfd1.bmp	blankscreen.bmp	circle.bmp
999	real_a	real_topleft_diff_a	5	964	23	mask.bmp	blankscreen.bmp	wfn3.bmp	blankscreen.bmp	circle.bmp
999	real_a	real_bottomleft_diff_a	6	745	18	mask.bmp	blankscreen.bmp	wmn2.bmp	blankscreen.bmp	circle.bmp
999	real_a	real_bottomright_same_a	7	847	18	mask.bmp	blankscreen.bmp	wmd5.bmp	blankscreen.bmp	circle.bmp
999	real_a	real_bottomleft_diff_a	8	896	23	mask.bmp	blankscreen.bmp	wfd3.bmp	blankscreen.bmp	square.bmp
999	real_a	real_bottomright_diff_a	9	1287	18	mask.bmp	blankscreen.bmp	wmd1.bmp	blankscreen.bmp	circle.bmp
999	real_a	real_bottomleft_same_a	10	679	23	mask.bmp	blankscreen.bmp	wmd4.bmp	blankscreen.bmp	square.bmp
999	real_a	real_topleft_diff_a	11	799	18	mask.bmp	blankscreen.bmp	wmd2.bmp	blankscreen.bmp	circle.bmp
999	real_a	real_bottomright_diff_a	12	994	18	mask.bmp	blankscreen.bmp	wfn2.bmp	blankscreen.bmp	circle.bmp
999	real_a	real_topright_same_a	13	718	23	mask.bmp	blankscreen.bmp	wmn4.bmp	blankscreen.bmp	square.bmp
999	real_a	real_topright_diff_a	14	677	18	mask.bmp	blankscreen.bmp	wmd3.bmp	blankscreen.bmp	circle.bmp
999	real_a	real_topleft_same_a	15	653	23	mask.bmp	blankscreen.bmp	wfn4.bmp	blankscreen.bmp	square.bmp
999	real_a	real_topleft_same_a	16	678	23	mask.bmp	blankscreen.bmp	wfd4.bmp	blankscreen.bmp	square.bmp
999	real_a	real_topright_diff_a	17	863	18	mask.bmp	blankscreen.bmp	wfd2.bmp	blankscreen.bmp	circle.bmp
999	real_a	real_bottomleft_diff_a	18	743	23	mask.bmp	blankscreen.bmp	wfn1.bmp	blankscreen.bmp	square.bmp
999	real_a	real_topright_diff_a	19	725	18	mask.bmp	blankscreen.bmp	wmn1.bmp	blankscreen.bmp	circle.bmp
999	real_a	real_bottomleft_same_a	20	564	23	mask.bmp	blankscreen.bmp	wfn5.bmp	blankscreen.bmp	square.bmp
999	real_b	real_bottomleft_same_b	1	1255	18	mask.bmp	blankscreen.bmp	wmd10.bmp	blankscreen.bmp	circle.bmp
999	real_b	real_topleft_diff_b	2	600	23	mask.bmp	blankscreen.bmp	wmn6.bmp	blankscreen.bmp	square.bmp
999	real_b	real_bottomright_same_b	3	579	23	mask.bmp	blankscreen.bmp	wfn10.bmp	blankscreen.bmp	square.bmp
999	real_b	real_topleft_same_b	4	487	23	mask.bmp	blankscreen.bmp	wmd9.bmp	blankscreen.bmp	square.bmp
999	real_b	real_topright_same_b	5	535	18	mask.bmp	blankscreen.bmp	wfn9.bmp	blankscreen.bmp	circle.bmp
999	real_b	real_topright_diff_b	6	965	18	mask.bmp	blankscreen.bmp	wfn6.bmp	blankscreen.bmp	circle.bmp
999	real_b	real_bottomleft_same_b	7	545	18	mask.bmp	blankscreen.bmp	wfd9.bmp	blankscreen.bmp	circle.bmp
999	real_b	real_topright_diff_b	8	1022	23	mask.bmp	blankscreen.bmp	wfd8.bmp	blankscreen.bmp	square.bmp
999	real_b	real_bottomright_diff_b	9	1137	18	mask.bmp	blankscreen.bmp	wfd6.bmp	blankscreen.bmp	circle.bmp
999	real_b	real_bottomright_diff_b	10	919	23	mask.bmp	blankscreen.bmp	wmd7.bmp	blankscreen.bmp	square.bmp
999	real_b	real_bottomright_diff_b	11	1141	18	mask.bmp	blankscreen.bmp	wfn8.bmp	blankscreen.bmp	circle.bmp
999	real_b	real_bottomleft_diff_b	12	763	18	mask.bmp	blankscreen.bmp	wmd6.bmp	blankscreen.bmp	circle.bmp
999	real_b	real_topright_diff_b	13	1488	18	mask.bmp	blankscreen.bmp	wmn7.bmp	blankscreen.bmp	circle.bmp
999	real_b	real_bottomleft_diff_b	14	632	23	mask.bmp	blankscreen.bmp	wmn8.bmp	blankscreen.bmp	square.bmp
999	real_b	real_topleft_diff_b	15	866	18	mask.bmp	blankscreen.bmp	wfd7.bmp	blankscreen.bmp	circle.bmp
999	real_b	real_bottomright_same_b	16	762	18	mask.bmp	blankscreen.bmp	wfd10.bmp	blankscreen.bmp	circle.bmp
999	real_b	real_bottomleft_diff_b	17	591	23	mask.bmp	blankscreen.bmp	wfn7.bmp	blankscreen.bmp	square.bmp
999	real_b	real_topleft_diff_b	18	1162	18	mask.bmp	blankscreen.bmp	wmd8.bmp	blankscreen.bmp	circle.bmp
999	real_b	real_topleft_same_b	19	623	18	mask.bmp	blankscreen.bmp	wmn9.bmp	blankscreen.bmp	circle.bmp
999	real_b	real_topright_same_b	20	610	23	mask.bmp	blankscreen.bmp	wmn10.bmp	blankscreen.bmp	square.bmp
999	real_c	real_bottomright_same_c	1	739	18	mask.bmp	blankscreen.bmp	wmd2.bmp	blankscreen.bmp	circle.bmp
999	real_c	real_topleft_diff_c	2	633	23	mask.bmp	blankscreen.bmp	wfd3.bmp	blankscreen.bmp	square.bmp
999	real_c	real_bottomleft_diff_c	3	675	23	mask.bmp	blankscreen.bmp	wfn3.bmp	blankscreen.bmp	square.bmp
999	real_c	real_bottomleft_diff_c	4	924	18	mask.bmp	blankscreen.bmp	wmd5.bmp	blankscreen.bmp	square.bmp
999	real_c	real_topleft_same_c	5	434	18	mask.bmp	blankscreen.bmp	wfd1.bmp	blankscreen.bmp	circle.bmp
999	real_c	real_topleft_diff_c	6	780	23	mask.bmp	blankscreen.bmp	wfn4.bmp	blankscreen.bmp	square.bmp
999	real_c	real_bottomleft_diff_c	7	600	23	mask.bmp	blankscreen.bmp	wfd4.bmp	blankscreen.bmp	square.bmp
999	real_c	real_topright_same_c	8	619	18	mask.bmp	blankscreen.bmp	wmd1.bmp	blankscreen.bmp	circle.bmp
999	real_c	real_topleft_diff_c	9	1165	18	mask.bmp	blankscreen.bmp	wmn5.bmp	blankscreen.bmp	circle.bmp
999	real_c	real_bottomright_diff_c	10	570	23	mask.bmp	blankscreen.bmp	wfd5.bmp	blankscreen.bmp	square.bmp
999	real_c	real_bottomright_diff_c	11	1526	18	mask.bmp	blankscreen.bmp	wmn4.bmp	blankscreen.bmp	circle.bmp
999	real_c	real_topright_diff_c	12	1877	18	mask.bmp	blankscreen.bmp	wmn3.bmp	blankscreen.bmp	circle.bmp
999	real_c	real_bottomright_diff_c	13	1446	23	mask.bmp	blankscreen.bmp	wmd3.bmp	blankscreen.bmp	square.bmp
999	real_c	real_bottomleft_same_c	14	639	23	mask.bmp	blankscreen.bmp	wfd2.bmp	blankscreen.bmp	square.bmp
999	real_c	real_bottomleft_same_c	15	625	23	mask.bmp	blankscreen.bmp	wmn1.bmp	blankscreen.bmp	square.bmp
999	real_c	real_topleft_same_c	16	619	23	mask.bmp	blankscreen.bmp	wfn1.bmp	blankscreen.bmp	square.bmp
999	real_c	real_topright_same_c	17	582	23	mask.bmp	blankscreen.bmp	wfn2.bmp	blankscreen.bmp	square.bmp
999	real_c	real_topright_diff_c	18	586	18	mask.bmp	blankscreen.bmp	wfn5.bmp	blankscreen.bmp	circle.bmp
999	real_c	real_bottomright_same_c	19	606	18	mask.bmp	blankscreen.bmp	wmn2.bmp	blankscreen.bmp	circle.bmp
999	real_c	real_topright_diff_c	20	689	23	mask.bmp	blankscreen.bmp	wmd4.bmp	blankscreen.bmp	square.bmp
999	real_d	real_bottomleft_diff_d	1	1061	18	mask.bmp	blankscreen.bmp	wmd8.bmp	blankscreen.bmp	circle.bmp
999	real_d	real_bottomright_diff_d	2	734	23	mask.bmp	blankscreen.bmp	wfd8.bmp	blankscreen.bmp	square.bmp
999	real_d	real_topright_diff_d	3	692	18	mask.bmp	blankscreen.bmp	wfn8.bmp	blankscreen.bmp	circle.bmp
999	real_d	real_bottomright_same_d	4	972	23	mask.bmp	blankscreen.bmp	wfd7.bmp	blankscreen.bmp	square.bmp
999	real_d	real_bottomleft_diff_d	5	872	18	mask.bmp	blankscreen.bmp	wmn9.bmp	blankscreen.bmp	circle.bmp
999	real_d	real_topright_diff_d	6	705	18	mask.bmp	blankscreen.bmp	wfd9.bmp	blankscreen.bmp	circle.bmp
999	real_d	real_bottomright_same_d	7	552	23	mask.bmp	blankscreen.bmp	wfn7.bmp	blankscreen.bmp	square.bmp
999	real_d	real_topleft_same_d	8	653	18	mask.bmp	blankscreen.bmp	wmn6.bmp	blankscreen.bmp	circle.bmp
999	real_d	real_bottomleft_diff_d	9	1030	23	mask.bmp	blankscreen.bmp	wfd10.bmp	blankscreen.bmp	square.bmp
999	real_d	real_bottomright_diff_d	10	760	23	mask.bmp	blankscreen.bmp	wfn9.bmp	blankscreen.bmp	square.bmp
999	real_d	real_topright_diff_d	11	589	23	mask.bmp	blankscreen.bmp	wmd10.bmp	blankscreen.bmp	square.bmp
999	real_d	real_bottomright_diff_d	12	785	23	mask.bmp	blankscreen.bmp	wmn10.bmp	blankscreen.bmp	square.bmp
999	real_d	real_bottomleft_same_d	13	1069	18	mask.bmp	blankscreen.bmp	wmn7.bmp	blankscreen.bmp	circle.bmp
999	real_d	real_topright_same_d	14	478	23	mask.bmp	blankscreen.bmp	wmd7.bmp	blankscreen.bmp	square.bmp
999	real_d	real_topleft_same_d	15	838	18	mask.bmp	blankscreen.bmp	wmd6.bmp	blankscreen.bmp	circle.bmp
999	real_d	real_topright_same_d	16	656	23	mask.bmp	blankscreen.bmp	wfd6.bmp	blankscreen.bmp	square.bmp
999	real_d	real_topleft_diff_d	17	665	23	mask.bmp	blankscreen.bmp	wfn10.bmp	blankscreen.bmp	square.bmp
999	real_d	real_topleft_diff_d	18	554	23	mask.bmp	blankscreen.bmp	wmd9.bmp	blankscreen.bmp	square.bmp
999	real_d	real_topleft_diff_d	19	591	23	mask.bmp	blankscreen.bmp	wmn8.bmp	blankscreen.bmp	square.bmp
999	real_d	real_bottomleft_same_d	20	555	23	mask.bmp	blankscreen.bmp	wfn6.bmp	blankscreen.bmp	square.bmp
90909	practice	practice_topright_same	1	805	23	mask.bmp	blankscreen.bmp	practice4.jpg	blankscreen.bmp	square.bmp
90909	practice	practice_bottomright_diff	2	632	18	mask.bmp	blankscreen.bmp	practice12.jpg	blankscreen.bmp	circle.bmp
90909	practice	practice_topright_same	3	442	23	mask.bmp	blankscreen.bmp	practice3.jpg	blankscreen.bmp	square.bmp
90909	practice	practice_topleft_same	4	1276	18	mask.bmp	blankscreen.bmp	practice1.jpg	blankscreen.bmp	circle.bmp
90909	practice	practice_bottomright_same	5	1468	18	mask.bmp	blankscreen.bmp	practice7.jpg	blankscreen.bmp	circle.bmp
90909	practice	practice_topleft_same	6	845	18	mask.bmp	blankscreen.bmp	practice2.jpg	blankscreen.bmp	circle.bmp
90909	practice	practice_bottomleft_same	7	558	18	mask.bmp	blankscreen.bmp	practice6.jpg	blankscreen.bmp	circle.bmp
90909	practice	practice_topleft_diff	8	587	23	mask.bmp	blankscreen.bmp	practice9.jpg	blankscreen.bmp	square.bmp
90909	practice	practice_topright_diff	9	823	18	mask.bmp	blankscreen.bmp	practice10.jpg	blankscreen.bmp	circle.bmp
90909	practice	practice_bottomleft_same	10	817	23	mask.bmp	blankscreen.bmp	practice5.jpg	blankscreen.bmp	square.bmp
90909	practice	practice_bottomleft_diff	11	660	18	mask.bmp	blankscreen.bmp	practice11.jpg	blankscreen.bmp	circle.bmp
90909	practice	practice_bottomright_same	12	1485	18	mask.bmp	blankscreen.bmp	practice8.jpg	blankscreen.bmp	circle.bmp
90909	real_a	real_bottomright_diff_a	1	914	23	mask.bmp	blankscreen.bmp	wmd1.bmp	blankscreen.bmp	square.bmp
90909	real_a	real_topright_diff_a	2	760	23	mask.bmp	blankscreen.bmp	wmn1.bmp	blankscreen.bmp	square.bmp
90909	real_a	real_topleft_diff_a	3	589	23	mask.bmp	blankscreen.bmp	wfd1.bmp	blankscreen.bmp	square.bmp
90909	real_a	real_bottomleft_diff_a	4	713	18	mask.bmp	blankscreen.bmp	wfn1.bmp	blankscreen.bmp	circle.bmp
90909	real_a	real_bottomright_diff_a	5	583	23	mask.bmp	blankscreen.bmp	wfn2.bmp	blankscreen.bmp	square.bmp
90909	real_a	real_topleft_diff_a	6	1139	23	mask.bmp	blankscreen.bmp	wmd2.bmp	blankscreen.bmp	square.bmp
90909	real_a	real_topright_diff_a	7	753	23	mask.bmp	blankscreen.bmp	wmd3.bmp	blankscreen.bmp	square.bmp
90909	real_a	real_bottomleft_same_a	8	590	18	mask.bmp	blankscreen.bmp	wmd4.bmp	blankscreen.bmp	circle.bmp
90909	real_a	real_topright_same_a	9	538	23	mask.bmp	blankscreen.bmp	wfd5.bmp	blankscreen.bmp	square.bmp
90909	real_a	real_bottomleft_diff_a	10	880	18	mask.bmp	blankscreen.bmp	wfd3.bmp	blankscreen.bmp	circle.bmp
90909	real_a	real_bottomleft_diff_a	11	832	18	mask.bmp	blankscreen.bmp	wmn2.bmp	blankscreen.bmp	circle.bmp
90909	real_a	real_bottomright_same_a	12	594	23	mask.bmp	blankscreen.bmp	wmd5.bmp	blankscreen.bmp	square.bmp
90909	real_a	real_topright_diff_a	13	1014	18	mask.bmp	blankscreen.bmp	wfd2.bmp	blankscreen.bmp	circle.bmp
90909	real_a	real_topright_same_a	14	616	23	mask.bmp	blankscreen.bmp	wmn4.bmp	blankscreen.bmp	square.bmp
90909	real_a	real_topleft_same_a	15	731	23	mask.bmp	blankscreen.bmp	wfd4.bmp	blankscreen.bmp	square.bmp
90909	real_a	real_bottomright_diff_a	16	1505	18	mask.bmp	blankscreen.bmp	wmn3.bmp	blankscreen.bmp	circle.bmp
90909	real_a	real_bottomright_same_a	17	1784	18	mask.bmp	blankscreen.bmp	wmn5.bmp	blankscreen.bmp	circle.bmp
90909	real_a	real_topleft_diff_a	18	1164	18	mask.bmp	blankscreen.bmp	wfn3.bmp	blankscreen.bmp	circle.bmp
90909	real_a	real_topleft_same_a	19	536	23	mask.bmp	blankscreen.bmp	wfn4.bmp	blankscreen.bmp	square.bmp
90909	real_a	real_bottomleft_same_a	20	1118	23	mask.bmp	blankscreen.bmp	wfn5.bmp	blankscreen.bmp	square.bmp
90909	real_b	real_topright_diff_b	1	1143	23	mask.bmp	blankscreen.bmp	wfn6.bmp	blankscreen.bmp	square.bmp
90909	real_b	real_bottomright_same_b	2	645	18	mask.bmp	blankscreen.bmp	wfn10.bmp	blankscreen.bmp	circle.bmp
90909	real_b	real_bottomright_diff_b	3	694	23	mask.bmp	blankscreen.bmp	wfn8.bmp	blankscreen.bmp	square.bmp
90909	real_b	real_topright_diff_b	4	1014	23	mask.bmp	blankscreen.bmp	wmn7.bmp	blankscreen.bmp	square.bmp
90909	real_b	real_bottomleft_diff_b	5	1080	18	mask.bmp	blankscreen.bmp	wfn7.bmp	blankscreen.bmp	circle.bmp
90909	real_b	real_topleft_diff_b	6	608	23	mask.bmp	blankscreen.bmp	wmd8.bmp	blankscreen.bmp	square.bmp
90909	real_b	real_topright_same_b	7	603	18	mask.bmp	blankscreen.bmp	wmn10.bmp	blankscreen.bmp	circle.bmp
90909	real_b	real_bottomright_same_b	8	695	18	mask.bmp	blankscreen.bmp	wfd10.bmp	blankscreen.bmp	circle.bmp
90909	real_b	real_topleft_diff_b	9	1190	18	mask.bmp	blankscreen.bmp	wmn6.bmp	blankscreen.bmp	circle.bmp
90909	real_b	real_topleft_same_b	10	634	23	mask.bmp	blankscreen.bmp	wmn9.bmp	blankscreen.bmp	square.bmp
90909	real_b	real_bottomleft_same_b	11	828	18	mask.bmp	blankscreen.bmp	wmd10.bmp	blankscreen.bmp	circle.bmp
90909	real_b	real_topright_same_b	12	631	18	mask.bmp	blankscreen.bmp	wfn9.bmp	blankscreen.bmp	circle.bmp
90909	real_b	real_topleft_diff_b	13	1737	18	mask.bmp	blankscreen.bmp	wfd7.bmp	blankscreen.bmp	circle.bmp
90909	real_b	real_bottomright_diff_b	14	663	18	mask.bmp	blankscreen.bmp	wfd6.bmp	blankscreen.bmp	circle.bmp
90909	real_b	real_bottomright_diff_b	15	727	23	mask.bmp	blankscreen.bmp	wmd7.bmp	blankscreen.bmp	square.bmp
90909	real_b	real_bottomleft_diff_b	16	1053	18	mask.bmp	blankscreen.bmp	wmn8.bmp	blankscreen.bmp	circle.bmp
90909	real_b	real_topright_diff_b	17	679	23	mask.bmp	blankscreen.bmp	wfd8.bmp	blankscreen.bmp	square.bmp
90909	real_b	real_bottomleft_same_b	18	1223	23	mask.bmp	blankscreen.bmp	wfd9.bmp	blankscreen.bmp	square.bmp
90909	real_b	real_bottomleft_diff_b	19	562	23	mask.bmp	blankscreen.bmp	wmd6.bmp	blankscreen.bmp	square.bmp
90909	real_b	real_topleft_same_b	20	591	18	mask.bmp	blankscreen.bmp	wmd9.bmp	blankscreen.bmp	circle.bmp
90909	real_c	real_bottomright_diff_c	1	1421	23	mask.bmp	blankscreen.bmp	wmd3.bmp	blankscreen.bmp	square.bmp
90909	real_c	real_bottomleft_same_c	2	463	23	mask.bmp	blankscreen.bmp	wmn1.bmp	blankscreen.bmp	square.bmp
90909	real_c	real_bottomleft_diff_c	3	560	23	mask.bmp	blankscreen.bmp	wmd5.bmp	blankscreen.bmp	square.bmp
90909	real_c	real_topleft_same_c	4	557	18	mask.bmp	blankscreen.bmp	wfn1.bmp	blankscreen.bmp	circle.bmp
90909	real_c	real_topleft_same_c	5	690	23	mask.bmp	blankscreen.bmp	wfd1.bmp	blankscreen.bmp	square.bmp
90909	real_c	real_topright_diff_c	6	714	23	mask.bmp	blankscreen.bmp	wfn5.bmp	blankscreen.bmp	square.bmp
90909	real_c	real_topright_diff_c	7	560	23	mask.bmp	blankscreen.bmp	wmd4.bmp	blankscreen.bmp	square.bmp
90909	real_c	real_bottomleft_diff_c	8	726	18	mask.bmp	blankscreen.bmp	wfd4.bmp	blankscreen.bmp	circle.bmp
90909	real_c	real_bottomright_same_c	9	1268	18	mask.bmp	blankscreen.bmp	wmd2.bmp	blankscreen.bmp	circle.bmp
90909	real_c	real_bottomright_diff_c	10	901	18	mask.bmp	blankscreen.bmp	wfd5.bmp	blankscreen.bmp	circle.bmp
90909	real_c	real_topleft_diff_c	11	836	23	mask.bmp	blankscreen.bmp	wfn4.bmp	blankscreen.bmp	square.bmp
90909	real_c	real_topright_same_c	12	598	18	mask.bmp	blankscreen.bmp	wfn2.bmp	blankscreen.bmp	circle.bmp
90909	real_c	real_bottomleft_same_c	13	889	18	mask.bmp	blankscreen.bmp	wfd2.bmp	blankscreen.bmp	circle.bmp
90909	real_c	real_topright_diff_c	14	649	23	mask.bmp	blankscreen.bmp	wmn3.bmp	blankscreen.bmp	square.bmp
90909	real_c	real_bottomright_same_c	15	578	23	mask.bmp	blankscreen.bmp	wmn2.bmp	blankscreen.bmp	square.bmp
90909	real_c	real_topright_same_c	16	638	23	mask.bmp	blankscreen.bmp	wmd1.bmp	blankscreen.bmp	square.bmp
90909	real_c	real_bottomright_diff_c	17	832	18	mask.bmp	blankscreen.bmp	wmn4.bmp	blankscreen.bmp	circle.bmp
90909	real_c	real_topleft_diff_c	18	1210	18	mask.bmp	blankscreen.bmp	wmn5.bmp	blankscreen.bmp	circle.bmp
90909	real_c	real_topleft_diff_c	19	893	18	mask.bmp	blankscreen.bmp	wfd3.bmp	blankscreen.bmp	circle.bmp
90909	real_c	real_bottomleft_diff_c	20	1181	18	mask.bmp	blankscreen.bmp	wfn3.bmp	blankscreen.bmp	circle.bmp
90909	real_d	real_bottomleft_diff_d	1	687	23	mask.bmp	blankscreen.bmp	wmd8.bmp	blankscreen.bmp	square.bmp
90909	real_d	real_topright_diff_d	2	903	23	mask.bmp	blankscreen.bmp	wmd10.bmp	blankscreen.bmp	square.bmp
90909	real_d	real_topleft_diff_d	3	638	23	mask.bmp	blankscreen.bmp	wmn8.bmp	blankscreen.bmp	square.bmp
90909	real_d	real_topleft_same_d	4	601	18	mask.bmp	blankscreen.bmp	wmn6.bmp	blankscreen.bmp	circle.bmp
90909	real_d	real_topleft_same_d	5	763	18	mask.bmp	blankscreen.bmp	wmd6.bmp	blankscreen.bmp	circle.bmp
90909	real_d	real_topright_diff_d	6	1160	23	mask.bmp	blankscreen.bmp	wfd9.bmp	blankscreen.bmp	square.bmp
90909	real_d	real_topright_same_d	7	797	18	mask.bmp	blankscreen.bmp	wfd6.bmp	blankscreen.bmp	square.bmp
90909	real_d	real_bottomright_diff_d	8	808	18	mask.bmp	blankscreen.bmp	wfn9.bmp	blankscreen.bmp	square.bmp
90909	real_d	real_bottomleft_diff_d	9	1107	18	mask.bmp	blankscreen.bmp	wfd10.bmp	blankscreen.bmp	square.bmp
90909	real_d	real_topleft_diff_d	10	2075	18	mask.bmp	blankscreen.bmp	wmd9.bmp	blankscreen.bmp	circle.bmp
90909	real_d	real_bottomleft_same_d	11	427	23	mask.bmp	blankscreen.bmp	wmn7.bmp	blankscreen.bmp	square.bmp
90909	real_d	real_topleft_diff_d	12	670	18	mask.bmp	blankscreen.bmp	wfn10.bmp	blankscreen.bmp	circle.bmp
90909	real_d	real_topright_diff_d	13	710	23	mask.bmp	blankscreen.bmp	wfn8.bmp	blankscreen.bmp	square.bmp
90909	real_d	real_bottomleft_same_d	14	1341	18	mask.bmp	blankscreen.bmp	wfn6.bmp	blankscreen.bmp	circle.bmp
90909	real_d	real_bottomright_diff_d	15	707	23	mask.bmp	blankscreen.bmp	wfd8.bmp	blankscreen.bmp	square.bmp
90909	real_d	real_bottomleft_diff_d	16	898	18	mask.bmp	blankscreen.bmp	wmn9.bmp	blankscreen.bmp	circle.bmp
90909	real_d	real_bottomright_same_d	17	770	18	mask.bmp	blankscreen.bmp	wfn7.bmp	blankscreen.bmp	circle.bmp
90909	real_d	real_bottomright_same_d	18	598	18	mask.bmp	blankscreen.bmp	wfd7.bmp	blankscreen.bmp	circle.bmp
90909	real_d	real_bottomright_diff_d	19	826	18	mask.bmp	blankscreen.bmp	wmn10.bmp	blankscreen.bmp	square.bmp
90909	real_d	real_topright_same_d	20	604	23	mask.bmp	blankscreen.bmp	wmd7.bmp	blankscreen.bmp	square.bmp
2	practice	practice_topright_same	1	932	23	mask.bmp	blankscreen.bmp	practice3.jpg	blankscreen.bmp	square.bmp
2	practice	practice_topright_same	2	1866	18	mask.bmp	blankscreen.bmp	practice4.jpg	blankscreen.bmp	circle.bmp
2	practice	practice_bottomright_same	3	667	18	mask.bmp	blankscreen.bmp	practice7.jpg	blankscreen.bmp	circle.bmp
2	practice	practice_bottomleft_diff	4	435	23	mask.bmp	blankscreen.bmp	practice11.jpg	blankscreen.bmp	square.bmp
2	practice	practice_topleft_same	5	877	23	mask.bmp	blankscreen.bmp	practice1.jpg	blankscreen.bmp	square.bmp
2	practice	practice_bottomright_same	6	397	18	mask.bmp	blankscreen.bmp	practice8.jpg	blankscreen.bmp	circle.bmp
2	practice	practice_topleft_diff	7	713	23	mask.bmp	blankscreen.bmp	practice9.jpg	blankscreen.bmp	square.bmp
2	practice	practice_bottomright_diff	8	823	23	mask.bmp	blankscreen.bmp	practice12.jpg	blankscreen.bmp	square.bmp
2	practice	practice_topleft_same	9	490	23	mask.bmp	blankscreen.bmp	practice2.jpg	blankscreen.bmp	square.bmp
2	practice	practice_bottomleft_same	10	377	18	mask.bmp	blankscreen.bmp	practice6.jpg	blankscreen.bmp	circle.bmp
2	practice	practice_topright_diff	11	678	23	mask.bmp	blankscreen.bmp	practice10.jpg	blankscreen.bmp	circle.bmp
2	practice	practice_bottomleft_same	12	702	23	mask.bmp	blankscreen.bmp	practice5.jpg	blankscreen.bmp	circle.bmp
2	real_a	real_bottomright_diff_a	1	745	18	mask.bmp	blankscreen.bmp	wmn3.bmp	blankscreen.bmp	circle.bmp
2	real_a	real_topleft_diff_a	2	430	18	mask.bmp	blankscreen.bmp	wmd2.bmp	blankscreen.bmp	circle.bmp
2	real_a	real_bottomleft_same_a	3	720	23	mask.bmp	blankscreen.bmp	wmd4.bmp	blankscreen.bmp	square.bmp
2	real_a	real_topleft_diff_a	4	758	18	mask.bmp	blankscreen.bmp	wfn3.bmp	blankscreen.bmp	circle.bmp
2	real_a	real_bottomright_diff_a	5	372	18	mask.bmp	blankscreen.bmp	wfn2.bmp	blankscreen.bmp	circle.bmp
2	real_a	real_bottomright_same_a	6	504	18	mask.bmp	blankscreen.bmp	wmd5.bmp	blankscreen.bmp	circle.bmp
2	real_a	real_topright_diff_a	7	583	23	mask.bmp	blankscreen.bmp	wmn1.bmp	blankscreen.bmp	circle.bmp
2	real_a	real_topleft_same_a	8	595	23	mask.bmp	blankscreen.bmp	wfd4.bmp	blankscreen.bmp	square.bmp
2	real_a	real_topright_diff_a	9	535	18	mask.bmp	blankscreen.bmp	wmd3.bmp	blankscreen.bmp	circle.bmp
2	real_a	real_bottomright_diff_a	10	973	18	mask.bmp	blankscreen.bmp	wmd1.bmp	blankscreen.bmp	circle.bmp
2	real_a	real_bottomright_same_a	11	713	23	mask.bmp	blankscreen.bmp	wmn5.bmp	blankscreen.bmp	square.bmp
2	real_a	real_topleft_same_a	12	663	18	mask.bmp	blankscreen.bmp	wfn4.bmp	blankscreen.bmp	circle.bmp
2	real_a	real_topright_same_a	13	936	23	mask.bmp	blankscreen.bmp	wfd5.bmp	blankscreen.bmp	circle.bmp
2	real_a	real_topleft_diff_a	14	910	23	mask.bmp	blankscreen.bmp	wfd1.bmp	blankscreen.bmp	square.bmp
2	real_a	real_topright_diff_a	15	773	18	mask.bmp	blankscreen.bmp	wfd2.bmp	blankscreen.bmp	circle.bmp
2	real_a	real_bottomleft_diff_a	16	698	23	mask.bmp	blankscreen.bmp	wfn1.bmp	blankscreen.bmp	square.bmp
2	real_a	real_topright_same_a	17	625	23	mask.bmp	blankscreen.bmp	wmn4.bmp	blankscreen.bmp	square.bmp
2	real_a	real_bottomleft_same_a	18	692	23	mask.bmp	blankscreen.bmp	wfn5.bmp	blankscreen.bmp	square.bmp
2	real_a	real_bottomleft_diff_a	19	523	18	mask.bmp	blankscreen.bmp	wfd3.bmp	blankscreen.bmp	circle.bmp
2	real_a	real_bottomleft_diff_a	20	537	23	mask.bmp	blankscreen.bmp	wmn2.bmp	blankscreen.bmp	square.bmp
2	real_b	real_bottomright_same_b	1	1121	23	mask.bmp	blankscreen.bmp	wfd10.bmp	blankscreen.bmp	square.bmp
2	real_b	real_topright_same_b	2	87	18	mask.bmp	blankscreen.bmp	wmn10.bmp	blankscreen.bmp	square.bmp
2	real_b	real_topleft_same_b	3	423	23	mask.bmp	blankscreen.bmp	wmn9.bmp	blankscreen.bmp	square.bmp
2	real_b	real_bottomright_diff_b	4	377	18	mask.bmp	blankscreen.bmp	wfn8.bmp	blankscreen.bmp	circle.bmp
2	real_b	real_bottomleft_same_b	5	902	18	mask.bmp	blankscreen.bmp	wmd10.bmp	blankscreen.bmp	circle.bmp
2	real_b	real_bottomright_same_b	6	757	18	mask.bmp	blankscreen.bmp	wfn10.bmp	blankscreen.bmp	circle.bmp
2	real_b	real_bottomright_diff_b	7	562	23	mask.bmp	blankscreen.bmp	wfd6.bmp	blankscreen.bmp	square.bmp
2	real_b	real_topright_diff_b	8	1519	23	mask.bmp	blankscreen.bmp	wfd8.bmp	blankscreen.bmp	square.bmp
2	real_b	real_topleft_diff_b	9	621	23	mask.bmp	blankscreen.bmp	wmn6.bmp	blankscreen.bmp	square.bmp
2	real_b	real_bottomleft_diff_b	10	624	23	mask.bmp	blankscreen.bmp	wmd6.bmp	blankscreen.bmp	square.bmp
2	real_b	real_bottomleft_diff_b	11	522	18	mask.bmp	blankscreen.bmp	wmn8.bmp	blankscreen.bmp	circle.bmp
2	real_b	real_topleft_diff_b	12	697	23	mask.bmp	blankscreen.bmp	wmd8.bmp	blankscreen.bmp	circle.bmp
2	real_b	real_bottomleft_same_b	13	584	18	mask.bmp	blankscreen.bmp	wfd9.bmp	blankscreen.bmp	circle.bmp
2	real_b	real_bottomleft_diff_b	14	652	18	mask.bmp	blankscreen.bmp	wfn7.bmp	blankscreen.bmp	circle.bmp
2	real_b	real_bottomright_diff_b	15	597	18	mask.bmp	blankscreen.bmp	wmd7.bmp	blankscreen.bmp	circle.bmp
2	real_b	real_topleft_same_b	16	736	23	mask.bmp	blankscreen.bmp	wmd9.bmp	blankscreen.bmp	square.bmp
2	real_b	real_topleft_diff_b	17	622	23	mask.bmp	blankscreen.bmp	wfd7.bmp	blankscreen.bmp	square.bmp
2	real_b	real_topright_same_b	18	552	23	mask.bmp	blankscreen.bmp	wfn9.bmp	blankscreen.bmp	square.bmp
2	real_b	real_topright_diff_b	19	558	18	mask.bmp	blankscreen.bmp	wfn6.bmp	blankscreen.bmp	circle.bmp
2	real_b	real_topright_diff_b	20	635	18	mask.bmp	blankscreen.bmp	wmn7.bmp	blankscreen.bmp	circle.bmp
2	real_c	real_bottomright_same_c	1	709	23	mask.bmp	blankscreen.bmp	wmd2.bmp	blankscreen.bmp	square.bmp
2	real_c	real_topright_diff_c	2	548	18	mask.bmp	blankscreen.bmp	wmn3.bmp	blankscreen.bmp	circle.bmp
2	real_c	real_topleft_same_c	3	745	18	mask.bmp	blankscreen.bmp	wfn1.bmp	blankscreen.bmp	circle.bmp
2	real_c	real_bottomleft_diff_c	4	550	18	mask.bmp	blankscreen.bmp	wfd4.bmp	blankscreen.bmp	circle.bmp
2	real_c	real_topright_diff_c	5	563	18	mask.bmp	blankscreen.bmp	wmd4.bmp	blankscreen.bmp	circle.bmp
2	real_c	real_topleft_diff_c	6	864	18	mask.bmp	blankscreen.bmp	wmn5.bmp	blankscreen.bmp	circle.bmp
2	real_c	real_bottomleft_same_c	7	425	18	mask.bmp	blankscreen.bmp	wmn1.bmp	blankscreen.bmp	circle.bmp
2	real_c	real_topright_diff_c	8	451	18	mask.bmp	blankscreen.bmp	wfn5.bmp	blankscreen.bmp	circle.bmp
2	real_c	real_bottomright_same_c	9	452	18	mask.bmp	blankscreen.bmp	wmn2.bmp	blankscreen.bmp	circle.bmp
2	real_c	real_bottomleft_diff_c	10	421	23	mask.bmp	blankscreen.bmp	wmd5.bmp	blankscreen.bmp	square.bmp
2	real_c	real_topright_same_c	11	496	18	mask.bmp	blankscreen.bmp	wfn2.bmp	blankscreen.bmp	circle.bmp
2	real_c	real_topleft_diff_c	12	391	23	mask.bmp	blankscreen.bmp	wfd3.bmp	blankscreen.bmp	square.bmp
2	real_c	real_bottomright_diff_c	13	643	23	mask.bmp	blankscreen.bmp	wmd3.bmp	blankscreen.bmp	square.bmp
2	real_c	real_topright_same_c	14	620	18	mask.bmp	blankscreen.bmp	wmd1.bmp	blankscreen.bmp	circle.bmp
2	real_c	real_bottomright_diff_c	15	639	23	mask.bmp	blankscreen.bmp	wmn4.bmp	blankscreen.bmp	square.bmp
2	real_c	real_bottomleft_same_c	16	505	18	mask.bmp	blankscreen.bmp	wfd2.bmp	blankscreen.bmp	circle.bmp
2	real_c	real_topleft_same_c	17	992	23	mask.bmp	blankscreen.bmp	wfd1.bmp	blankscreen.bmp	square.bmp
2	real_c	real_topleft_diff_c	18	700	23	mask.bmp	blankscreen.bmp	wfn4.bmp	blankscreen.bmp	square.bmp
2	real_c	real_bottomright_diff_c	19	459	23	mask.bmp	blankscreen.bmp	wfd5.bmp	blankscreen.bmp	square.bmp
2	real_c	real_bottomleft_diff_c	20	476	23	mask.bmp	blankscreen.bmp	wfn3.bmp	blankscreen.bmp	square.bmp
2	real_d	real_bottomright_diff_d	1	577	23	mask.bmp	blankscreen.bmp	wfd8.bmp	blankscreen.bmp	square.bmp
2	real_d	real_topleft_same_d	2	558	23	mask.bmp	blankscreen.bmp	wmn6.bmp	blankscreen.bmp	square.bmp
2	real_d	real_bottomright_diff_d	3	579	18	mask.bmp	blankscreen.bmp	wmn10.bmp	blankscreen.bmp	circle.bmp
2	real_d	real_topright_diff_d	4	663	23	mask.bmp	blankscreen.bmp	wfd9.bmp	blankscreen.bmp	square.bmp
2	real_d	real_topright_same_d	5	495	18	mask.bmp	blankscreen.bmp	wfd6.bmp	blankscreen.bmp	circle.bmp
2	real_d	real_topleft_diff_d	6	327	23	mask.bmp	blankscreen.bmp	wmn8.bmp	blankscreen.bmp	square.bmp
2	real_d	real_topright_same_d	7	477	23	mask.bmp	blankscreen.bmp	wmd7.bmp	blankscreen.bmp	square.bmp
2	real_d	real_bottomleft_diff_d	8	470	23	mask.bmp	blankscreen.bmp	wmn9.bmp	blankscreen.bmp	square.bmp
2	real_d	real_topleft_diff_d	9	1558	18	mask.bmp	blankscreen.bmp	wmd9.bmp	blankscreen.bmp	circle.bmp
2	real_d	real_bottomright_same_d	10	476	18	mask.bmp	blankscreen.bmp	wfd7.bmp	blankscreen.bmp	circle.bmp
2	real_d	real_bottomleft_same_d	11	588	23	mask.bmp	blankscreen.bmp	wmn7.bmp	blankscreen.bmp	square.bmp
2	real_d	real_topleft_same_d	12	608	18	mask.bmp	blankscreen.bmp	wmd6.bmp	blankscreen.bmp	circle.bmp
2	real_d	real_bottomright_same_d	13	907	18	mask.bmp	blankscreen.bmp	wfn7.bmp	blankscreen.bmp	circle.bmp
2	real_d	real_topleft_diff_d	14	530	18	mask.bmp	blankscreen.bmp	wfn10.bmp	blankscreen.bmp	circle.bmp
2	real_d	real_bottomright_diff_d	15	464	18	mask.bmp	blankscreen.bmp	wfn9.bmp	blankscreen.bmp	circle.bmp
2	real_d	real_topright_diff_d	16	552	18	mask.bmp	blankscreen.bmp	wfn8.bmp	blankscreen.bmp	circle.bmp
2	real_d	real_bottomleft_diff_d	17	390	23	mask.bmp	blankscreen.bmp	wmd8.bmp	blankscreen.bmp	square.bmp
2	real_d	real_bottomleft_diff_d	18	754	18	mask.bmp	blankscreen.bmp	wfd10.bmp	blankscreen.bmp	circle.bmp
2	real_d	real_bottomleft_same_d	19	415	23	mask.bmp	blankscreen.bmp	wfn6.bmp	blankscreen.bmp	square.bmp
2	real_d	real_topright_diff_d	20	393	18	mask.bmp	blankscreen.bmp	wmd10.bmp	blankscreen.bmp	circle.bmp
4	practice	practice_bottomleft_same	1	1375	23	mask.bmp	blankscreen.bmp	practice5.jpg	blankscreen.bmp	square.bmp
4	practice	practice_bottomright_same	2	1195	18	mask.bmp	blankscreen.bmp	practice8.jpg	blankscreen.bmp	circle.bmp
4	practice	practice_bottomleft_diff	3	671	18	mask.bmp	blankscreen.bmp	practice11.jpg	blankscreen.bmp	circle.bmp
4	practice	practice_topright_diff	4	391	23	mask.bmp	blankscreen.bmp	practice10.jpg	blankscreen.bmp	square.bmp
4	practice	practice_topright_same	5	395	18	mask.bmp	blankscreen.bmp	practice4.jpg	blankscreen.bmp	circle.bmp
4	practice	practice_bottomright_diff	6	423	18	mask.bmp	blankscreen.bmp	practice12.jpg	blankscreen.bmp	circle.bmp
4	practice	practice_topleft_same	7	433	23	mask.bmp	blankscreen.bmp	practice2.jpg	blankscreen.bmp	circle.bmp
4	practice	practice_bottomleft_same	8	491	18	mask.bmp	blankscreen.bmp	practice6.jpg	blankscreen.bmp	circle.bmp
4	practice	practice_topleft_same	9	363	23	mask.bmp	blankscreen.bmp	practice1.jpg	blankscreen.bmp	square.bmp
4	practice	practice_bottomright_same	10	423	18	mask.bmp	blankscreen.bmp	practice7.jpg	blankscreen.bmp	circle.bmp
4	practice	practice_topleft_diff	11	426	18	mask.bmp	blankscreen.bmp	practice9.jpg	blankscreen.bmp	circle.bmp
4	practice	practice_topright_same	12	429	18	mask.bmp	blankscreen.bmp	practice3.jpg	blankscreen.bmp	circle.bmp
4	real_a	real_bottomleft_same_a	1	395	18	mask.bmp	blankscreen.bmp	wmd4.bmp	blankscreen.bmp	circle.bmp
4	real_a	real_topright_diff_a	2	382	18	mask.bmp	blankscreen.bmp	wfd2.bmp	blankscreen.bmp	circle.bmp
4	real_a	real_bottomright_diff_a	3	418	18	mask.bmp	blankscreen.bmp	wmd1.bmp	blankscreen.bmp	circle.bmp
4	real_a	real_bottomright_same_a	4	388	23	mask.bmp	blankscreen.bmp	wmd5.bmp	blankscreen.bmp	circle.bmp
4	real_a	real_topright_same_a	5	672	18	mask.bmp	blankscreen.bmp	wfd5.bmp	blankscreen.bmp	circle.bmp
4	real_a	real_bottomleft_diff_a	6	304	23	mask.bmp	blankscreen.bmp	wfn1.bmp	blankscreen.bmp	square.bmp
4	real_a	real_topright_diff_a	7	448	18	mask.bmp	blankscreen.bmp	wmn1.bmp	blankscreen.bmp	circle.bmp
4	real_a	real_bottomright_diff_a	8	417	18	mask.bmp	blankscreen.bmp	wfn2.bmp	blankscreen.bmp	circle.bmp
4	real_a	real_bottomleft_diff_a	9	563	23	mask.bmp	blankscreen.bmp	wmn2.bmp	blankscreen.bmp	square.bmp
4	real_a	real_bottomright_diff_a	10	472	18	mask.bmp	blankscreen.bmp	wmn3.bmp	blankscreen.bmp	square.bmp
4	real_a	real_topleft_diff_a	11	784	23	mask.bmp	blankscreen.bmp	wfd1.bmp	blankscreen.bmp	square.bmp
4	real_a	real_topright_same_a	12	556	18	mask.bmp	blankscreen.bmp	wmn4.bmp	blankscreen.bmp	circle.bmp
4	real_a	real_topleft_same_a	13	993	23	mask.bmp	blankscreen.bmp	wfn4.bmp	blankscreen.bmp	square.bmp
4	real_a	real_topleft_diff_a	14	645	18	mask.bmp	blankscreen.bmp	wmd2.bmp	blankscreen.bmp	circle.bmp
4	real_a	real_topleft_same_a	15	687	18	mask.bmp	blankscreen.bmp	wfd4.bmp	blankscreen.bmp	circle.bmp
4	real_a	real_bottomleft_same_a	16	622	23	mask.bmp	blankscreen.bmp	wfn5.bmp	blankscreen.bmp	square.bmp
4	real_a	real_topright_diff_a	17	969	18	mask.bmp	blankscreen.bmp	wmd3.bmp	blankscreen.bmp	circle.bmp
4	real_a	real_topleft_diff_a	18	702	23	mask.bmp	blankscreen.bmp	wfn3.bmp	blankscreen.bmp	square.bmp
4	real_a	real_bottomright_same_a	19	773	23	mask.bmp	blankscreen.bmp	wmn5.bmp	blankscreen.bmp	square.bmp
4	real_a	real_bottomleft_diff_a	20	593	18	mask.bmp	blankscreen.bmp	wfd3.bmp	blankscreen.bmp	circle.bmp
4	real_b	real_bottomright_diff_b	1	1141	23	mask.bmp	blankscreen.bmp	wmd7.bmp	blankscreen.bmp	square.bmp
4	real_b	real_bottomright_diff_b	2	787	18	mask.bmp	blankscreen.bmp	wfd6.bmp	blankscreen.bmp	circle.bmp
4	real_b	real_bottomright_diff_b	3	663	23	mask.bmp	blankscreen.bmp	wfn8.bmp	blankscreen.bmp	square.bmp
4	real_b	real_bottomleft_diff_b	4	672	23	mask.bmp	blankscreen.bmp	wmn8.bmp	blankscreen.bmp	square.bmp
4	real_b	real_topright_same_b	5	376	23	mask.bmp	blankscreen.bmp	wfn9.bmp	blankscreen.bmp	circle.bmp
4	real_b	real_topright_same_b	6	461	18	mask.bmp	blankscreen.bmp	wmn10.bmp	blankscreen.bmp	square.bmp
4	real_b	real_topleft_diff_b	7	630	18	mask.bmp	blankscreen.bmp	wmd8.bmp	blankscreen.bmp	circle.bmp
4	real_b	real_topright_diff_b	8	512	23	mask.bmp	blankscreen.bmp	wfn6.bmp	blankscreen.bmp	square.bmp
4	real_b	real_bottomleft_diff_b	9	583	23	mask.bmp	blankscreen.bmp	wmd6.bmp	blankscreen.bmp	circle.bmp
4	real_b	real_topleft_same_b	10	371	18	mask.bmp	blankscreen.bmp	wmd9.bmp	blankscreen.bmp	circle.bmp
4	real_b	real_topleft_same_b	11	615	18	mask.bmp	blankscreen.bmp	wmn9.bmp	blankscreen.bmp	circle.bmp
4	real_b	real_bottomleft_same_b	12	778	23	mask.bmp	blankscreen.bmp	wfd9.bmp	blankscreen.bmp	square.bmp
4	real_b	real_bottomright_same_b	13	1142	18	mask.bmp	blankscreen.bmp	wfd10.bmp	blankscreen.bmp	circle.bmp
4	real_b	real_topleft_diff_b	14	540	18	mask.bmp	blankscreen.bmp	wfd7.bmp	blankscreen.bmp	circle.bmp
4	real_b	real_topright_diff_b	15	378	23	mask.bmp	blankscreen.bmp	wmn7.bmp	blankscreen.bmp	square.bmp
4	real_b	real_topleft_diff_b	16	662	18	mask.bmp	blankscreen.bmp	wmn6.bmp	blankscreen.bmp	circle.bmp
4	real_b	real_topright_diff_b	17	391	23	mask.bmp	blankscreen.bmp	wfd8.bmp	blankscreen.bmp	square.bmp
4	real_b	real_bottomleft_diff_b	18	595	18	mask.bmp	blankscreen.bmp	wfn7.bmp	blankscreen.bmp	circle.bmp
4	real_b	real_bottomleft_same_b	19	791	18	mask.bmp	blankscreen.bmp	wmd10.bmp	blankscreen.bmp	circle.bmp
4	real_b	real_bottomright_same_b	20	643	23	mask.bmp	blankscreen.bmp	wfn10.bmp	blankscreen.bmp	square.bmp
4	real_c	real_topright_diff_c	1	828	18	mask.bmp	blankscreen.bmp	wfn5.bmp	blankscreen.bmp	square.bmp
4	real_c	real_topright_same_c	2	686	18	mask.bmp	blankscreen.bmp	wmd1.bmp	blankscreen.bmp	circle.bmp
4	real_c	real_topleft_diff_c	3	822	18	mask.bmp	blankscreen.bmp	wfn4.bmp	blankscreen.bmp	circle.bmp
4	real_c	real_topleft_same_c	4	696	23	mask.bmp	blankscreen.bmp	wfn1.bmp	blankscreen.bmp	square.bmp
4	real_c	real_bottomleft_same_c	5	944	23	mask.bmp	blankscreen.bmp	wmn1.bmp	blankscreen.bmp	square.bmp
4	real_c	real_topleft_same_c	6	510	18	mask.bmp	blankscreen.bmp	wfd1.bmp	blankscreen.bmp	circle.bmp
4	real_c	real_bottomleft_same_c	7	1421	18	mask.bmp	blankscreen.bmp	wfd2.bmp	blankscreen.bmp	circle.bmp
4	real_c	real_topright_diff_c	8	583	23	mask.bmp	blankscreen.bmp	wmd4.bmp	blankscreen.bmp	square.bmp
4	real_c	real_bottomleft_diff_c	9	643	23	mask.bmp	blankscreen.bmp	wfd4.bmp	blankscreen.bmp	square.bmp
4	real_c	real_topright_diff_c	10	725	23	mask.bmp	blankscreen.bmp	wmn3.bmp	blankscreen.bmp	square.bmp
4	real_c	real_bottomright_same_c	11	628	23	mask.bmp	blankscreen.bmp	wmd2.bmp	blankscreen.bmp	square.bmp
4	real_c	real_topleft_diff_c	12	662	23	mask.bmp	blankscreen.bmp	wfd3.bmp	blankscreen.bmp	square.bmp
4	real_c	real_bottomleft_diff_c	13	511	23	mask.bmp	blankscreen.bmp	wmd5.bmp	blankscreen.bmp	square.bmp
4	real_c	real_bottomright_diff_c	14	566	18	mask.bmp	blankscreen.bmp	wmn4.bmp	blankscreen.bmp	circle.bmp
4	real_c	real_bottomleft_diff_c	15	611	23	mask.bmp	blankscreen.bmp	wfn3.bmp	blankscreen.bmp	square.bmp
4	real_c	real_bottomright_diff_c	16	574	23	mask.bmp	blankscreen.bmp	wfd5.bmp	blankscreen.bmp	square.bmp
4	real_c	real_topright_same_c	17	434	23	mask.bmp	blankscreen.bmp	wfn2.bmp	blankscreen.bmp	square.bmp
4	real_c	real_bottomright_diff_c	18	804	18	mask.bmp	blankscreen.bmp	wmd3.bmp	blankscreen.bmp	circle.bmp
4	real_c	real_topleft_diff_c	19	463	23	mask.bmp	blankscreen.bmp	wmn5.bmp	blankscreen.bmp	circle.bmp
4	real_c	real_bottomright_same_c	20	504	18	mask.bmp	blankscreen.bmp	wmn2.bmp	blankscreen.bmp	circle.bmp
4	real_d	real_bottomright_same_d	1	531	23	mask.bmp	blankscreen.bmp	wfd7.bmp	blankscreen.bmp	square.bmp
4	real_d	real_topright_diff_d	2	496	18	mask.bmp	blankscreen.bmp	wfn8.bmp	blankscreen.bmp	circle.bmp
4	real_d	real_bottomleft_diff_d	3	696	18	mask.bmp	blankscreen.bmp	wmd8.bmp	blankscreen.bmp	circle.bmp
4	real_d	real_topleft_diff_d	4	423	23	mask.bmp	blankscreen.bmp	wmd9.bmp	blankscreen.bmp	square.bmp
4	real_d	real_topright_same_d	5	626	23	mask.bmp	blankscreen.bmp	wmd7.bmp	blankscreen.bmp	square.bmp
4	real_d	real_bottomright_diff_d	6	693	23	mask.bmp	blankscreen.bmp	wmn10.bmp	blankscreen.bmp	square.bmp
4	real_d	real_bottomleft_same_d	7	716	18	mask.bmp	blankscreen.bmp	wmn7.bmp	blankscreen.bmp	circle.bmp
4	real_d	real_bottomleft_diff_d	8	715	23	mask.bmp	blankscreen.bmp	wmn9.bmp	blankscreen.bmp	square.bmp
4	real_d	real_bottomleft_same_d	9	393	18	mask.bmp	blankscreen.bmp	wfn6.bmp	blankscreen.bmp	circle.bmp
4	real_d	real_bottomright_diff_d	10	1141	18	mask.bmp	blankscreen.bmp	wfn9.bmp	blankscreen.bmp	circle.bmp
4	real_d	real_topright_same_d	11	715	23	mask.bmp	blankscreen.bmp	wfd6.bmp	blankscreen.bmp	square.bmp
4	real_d	real_bottomleft_diff_d	12	1001	18	mask.bmp	blankscreen.bmp	wfd10.bmp	blankscreen.bmp	circle.bmp
4	real_d	real_topleft_same_d	13	493	18	mask.bmp	blankscreen.bmp	wmd6.bmp	blankscreen.bmp	circle.bmp
4	real_d	real_bottomright_same_d	14	724	23	mask.bmp	blankscreen.bmp	wfn7.bmp	blankscreen.bmp	square.bmp
4	real_d	real_bottomright_diff_d	15	699	18	mask.bmp	blankscreen.bmp	wfd8.bmp	blankscreen.bmp	circle.bmp
4	real_d	real_topleft_diff_d	16	738	23	mask.bmp	blankscreen.bmp	wmn8.bmp	blankscreen.bmp	square.bmp
4	real_d	real_topleft_diff_d	17	744	23	mask.bmp	blankscreen.bmp	wfn10.bmp	blankscreen.bmp	square.bmp
4	real_d	real_topright_diff_d	18	478	23	mask.bmp	blankscreen.bmp	wmd10.bmp	blankscreen.bmp	square.bmp
4	real_d	real_topleft_same_d	19	822	18	mask.bmp	blankscreen.bmp	wmn6.bmp	blankscreen.bmp	circle.bmp
4	real_d	real_topright_diff_d	20	665	18	mask.bmp	blankscreen.bmp	wfd9.bmp	blankscreen.bmp	circle.bmp
8	practice	practice_bottomleft_same	1	1707	18	mask.bmp	blankscreen.bmp	practice6.jpg	blankscreen.bmp	circle.bmp
8	practice	practice_topleft_diff	2	2307	18	mask.bmp	blankscreen.bmp	practice9.jpg	blankscreen.bmp	circle.bmp
8	practice	practice_bottomleft_same	3	562	18	mask.bmp	blankscreen.bmp	practice5.jpg	blankscreen.bmp	circle.bmp
8	practice	practice_topright_same	4	726	18	mask.bmp	blankscreen.bmp	practice3.jpg	blankscreen.bmp	circle.bmp
8	practice	practice_bottomright_same	5	829	18	mask.bmp	blankscreen.bmp	practice8.jpg	blankscreen.bmp	circle.bmp
8	practice	practice_bottomleft_diff	6	783	23	mask.bmp	blankscreen.bmp	practice11.jpg	blankscreen.bmp	square.bmp
8	practice	practice_bottomright_diff	7	611	23	mask.bmp	blankscreen.bmp	practice12.jpg	blankscreen.bmp	square.bmp
8	practice	practice_topright_diff	8	446	18	mask.bmp	blankscreen.bmp	practice10.jpg	blankscreen.bmp	circle.bmp
8	practice	practice_topright_same	9	1071	18	mask.bmp	blankscreen.bmp	practice4.jpg	blankscreen.bmp	circle.bmp
8	practice	practice_topleft_same	10	528	18	mask.bmp	blankscreen.bmp	practice1.jpg	blankscreen.bmp	circle.bmp
8	practice	practice_bottomright_same	11	878	18	mask.bmp	blankscreen.bmp	practice7.jpg	blankscreen.bmp	circle.bmp
8	practice	practice_topleft_same	12	599	23	mask.bmp	blankscreen.bmp	practice2.jpg	blankscreen.bmp	square.bmp
8	real_a	real_bottomright_same_a	1	674	23	mask.bmp	blankscreen.bmp	wmn5.bmp	blankscreen.bmp	square.bmp
8	real_a	real_topright_diff_a	2	595	23	mask.bmp	blankscreen.bmp	wmn1.bmp	blankscreen.bmp	square.bmp
8	real_a	real_topleft_same_a	3	319	18	mask.bmp	blankscreen.bmp	wfd4.bmp	blankscreen.bmp	square.bmp
8	real_a	real_topright_diff_a	4	573	18	mask.bmp	blankscreen.bmp	wfd2.bmp	blankscreen.bmp	circle.bmp
8	real_a	real_topright_same_a	5	490	23	mask.bmp	blankscreen.bmp	wmn4.bmp	blankscreen.bmp	square.bmp
8	real_a	real_topleft_diff_a	6	761	18	mask.bmp	blankscreen.bmp	wmd2.bmp	blankscreen.bmp	circle.bmp
8	real_a	real_bottomleft_diff_a	7	679	23	mask.bmp	blankscreen.bmp	wfd3.bmp	blankscreen.bmp	square.bmp
8	real_a	real_bottomleft_same_a	8	726	18	mask.bmp	blankscreen.bmp	wmd4.bmp	blankscreen.bmp	circle.bmp
8	real_a	real_bottomright_diff_a	9	549	18	mask.bmp	blankscreen.bmp	wfn2.bmp	blankscreen.bmp	circle.bmp
8	real_a	real_topleft_same_a	10	594	18	mask.bmp	blankscreen.bmp	wfn4.bmp	blankscreen.bmp	circle.bmp
8	real_a	real_topleft_diff_a	11	558	23	mask.bmp	blankscreen.bmp	wfd1.bmp	blankscreen.bmp	square.bmp
8	real_a	real_bottomright_diff_a	12	875	23	mask.bmp	blankscreen.bmp	wmd1.bmp	blankscreen.bmp	square.bmp
8	real_a	real_topright_diff_a	13	747	18	mask.bmp	blankscreen.bmp	wmd3.bmp	blankscreen.bmp	circle.bmp
8	real_a	real_bottomleft_diff_a	14	624	18	mask.bmp	blankscreen.bmp	wmn2.bmp	blankscreen.bmp	square.bmp
8	real_a	real_bottomleft_diff_a	15	883	18	mask.bmp	blankscreen.bmp	wfn1.bmp	blankscreen.bmp	circle.bmp
8	real_a	real_bottomright_diff_a	16	907	18	mask.bmp	blankscreen.bmp	wmn3.bmp	blankscreen.bmp	circle.bmp
8	real_a	real_bottomleft_same_a	17	578	23	mask.bmp	blankscreen.bmp	wfn5.bmp	blankscreen.bmp	square.bmp
8	real_a	real_topright_same_a	18	679	23	mask.bmp	blankscreen.bmp	wfd5.bmp	blankscreen.bmp	square.bmp
8	real_a	real_bottomright_same_a	19	654	18	mask.bmp	blankscreen.bmp	wmd5.bmp	blankscreen.bmp	circle.bmp
8	real_a	real_topleft_diff_a	20	608	18	mask.bmp	blankscreen.bmp	wfn3.bmp	blankscreen.bmp	circle.bmp
8	real_b	real_topleft_same_b	1	598	18	mask.bmp	blankscreen.bmp	wmd9.bmp	blankscreen.bmp	circle.bmp
8	real_b	real_bottomleft_same_b	2	586	23	mask.bmp	blankscreen.bmp	wmd10.bmp	blankscreen.bmp	square.bmp
8	real_b	real_bottomleft_diff_b	3	558	18	mask.bmp	blankscreen.bmp	wmd6.bmp	blankscreen.bmp	circle.bmp
8	real_b	real_bottomright_same_b	4	851	23	mask.bmp	blankscreen.bmp	wfn10.bmp	blankscreen.bmp	square.bmp
8	real_b	real_bottomright_same_b	5	748	18	mask.bmp	blankscreen.bmp	wfd10.bmp	blankscreen.bmp	circle.bmp
8	real_b	real_bottomleft_same_b	6	417	18	mask.bmp	blankscreen.bmp	wfd9.bmp	blankscreen.bmp	circle.bmp
8	real_b	real_bottomright_diff_b	7	1299	18	mask.bmp	blankscreen.bmp	wfd6.bmp	blankscreen.bmp	circle.bmp
8	real_b	real_bottomright_diff_b	8	563	18	mask.bmp	blankscreen.bmp	wfn8.bmp	blankscreen.bmp	circle.bmp
8	real_b	real_topleft_diff_b	9	383	23	mask.bmp	blankscreen.bmp	wfd7.bmp	blankscreen.bmp	square.bmp
8	real_b	real_bottomleft_diff_b	10	563	18	mask.bmp	blankscreen.bmp	wfn7.bmp	blankscreen.bmp	circle.bmp
8	real_b	real_bottomleft_diff_b	11	679	18	mask.bmp	blankscreen.bmp	wmn8.bmp	blankscreen.bmp	circle.bmp
8	real_b	real_topleft_same_b	12	551	23	mask.bmp	blankscreen.bmp	wmn9.bmp	blankscreen.bmp	square.bmp
8	real_b	real_topright_diff_b	13	1364	18	mask.bmp	blankscreen.bmp	wfn6.bmp	blankscreen.bmp	circle.bmp
8	real_b	real_topleft_diff_b	14	561	18	mask.bmp	blankscreen.bmp	wmn6.bmp	blankscreen.bmp	circle.bmp
8	real_b	real_topleft_diff_b	15	526	18	mask.bmp	blankscreen.bmp	wmd8.bmp	blankscreen.bmp	circle.bmp
8	real_b	real_topright_diff_b	16	613	18	mask.bmp	blankscreen.bmp	wfd8.bmp	blankscreen.bmp	circle.bmp
8	real_b	real_topright_same_b	17	463	18	mask.bmp	blankscreen.bmp	wmn10.bmp	blankscreen.bmp	circle.bmp
8	real_b	real_topright_diff_b	18	520	23	mask.bmp	blankscreen.bmp	wmn7.bmp	blankscreen.bmp	square.bmp
8	real_b	real_topright_same_b	19	958	23	mask.bmp	blankscreen.bmp	wfn9.bmp	blankscreen.bmp	square.bmp
8	real_b	real_bottomright_diff_b	20	619	23	mask.bmp	blankscreen.bmp	wmd7.bmp	blankscreen.bmp	square.bmp
8	real_c	real_bottomleft_same_c	1	595	23	mask.bmp	blankscreen.bmp	wfd2.bmp	blankscreen.bmp	square.bmp
8	real_c	real_topright_same_c	2	486	18	mask.bmp	blankscreen.bmp	wfn2.bmp	blankscreen.bmp	circle.bmp
8	real_c	real_bottomright_same_c	3	606	18	mask.bmp	blankscreen.bmp	wmn2.bmp	blankscreen.bmp	circle.bmp
8	real_c	real_topright_diff_c	4	545	18	mask.bmp	blankscreen.bmp	wfn5.bmp	blankscreen.bmp	circle.bmp
8	real_c	real_bottomright_same_c	5	535	23	mask.bmp	blankscreen.bmp	wmd2.bmp	blankscreen.bmp	square.bmp
8	real_c	real_topleft_diff_c	6	701	23	mask.bmp	blankscreen.bmp	wfn4.bmp	blankscreen.bmp	square.bmp
8	real_c	real_bottomleft_diff_c	7	548	18	mask.bmp	blankscreen.bmp	wfd4.bmp	blankscreen.bmp	circle.bmp
8	real_c	real_bottomright_diff_c	8	625	18	mask.bmp	blankscreen.bmp	wmd3.bmp	blankscreen.bmp	circle.bmp
8	real_c	real_topright_diff_c	9	947	23	mask.bmp	blankscreen.bmp	wmd4.bmp	blankscreen.bmp	square.bmp
8	real_c	real_bottomright_diff_c	10	617	23	mask.bmp	blankscreen.bmp	wfd5.bmp	blankscreen.bmp	square.bmp
8	real_c	real_topleft_diff_c	11	643	18	mask.bmp	blankscreen.bmp	wmn5.bmp	blankscreen.bmp	circle.bmp
8	real_c	real_bottomleft_same_c	12	581	23	mask.bmp	blankscreen.bmp	wmn1.bmp	blankscreen.bmp	square.bmp
8	real_c	real_topleft_same_c	13	841	18	mask.bmp	blankscreen.bmp	wfd1.bmp	blankscreen.bmp	circle.bmp
8	real_c	real_bottomleft_diff_c	14	707	18	mask.bmp	blankscreen.bmp	wmd5.bmp	blankscreen.bmp	circle.bmp
8	real_c	real_topright_same_c	15	482	23	mask.bmp	blankscreen.bmp	wmd1.bmp	blankscreen.bmp	square.bmp
8	real_c	real_bottomright_diff_c	16	634	23	mask.bmp	blankscreen.bmp	wmn4.bmp	blankscreen.bmp	square.bmp
8	real_c	real_topleft_same_c	17	620	23	mask.bmp	blankscreen.bmp	wfn1.bmp	blankscreen.bmp	square.bmp
8	real_c	real_topright_diff_c	18	574	18	mask.bmp	blankscreen.bmp	wmn3.bmp	blankscreen.bmp	circle.bmp
8	real_c	real_topleft_diff_c	19	563	23	mask.bmp	blankscreen.bmp	wfd3.bmp	blankscreen.bmp	square.bmp
8	real_c	real_bottomleft_diff_c	20	647	18	mask.bmp	blankscreen.bmp	wfn3.bmp	blankscreen.bmp	circle.bmp
8	real_d	real_topleft_same_d	1	478	23	mask.bmp	blankscreen.bmp	wmd6.bmp	blankscreen.bmp	square.bmp
8	real_d	real_topleft_same_d	2	566	23	mask.bmp	blankscreen.bmp	wmn6.bmp	blankscreen.bmp	square.bmp
8	real_d	real_topright_diff_d	3	594	23	mask.bmp	blankscreen.bmp	wmd10.bmp	blankscreen.bmp	square.bmp
8	real_d	real_topright_same_d	4	422	23	mask.bmp	blankscreen.bmp	wmd7.bmp	blankscreen.bmp	square.bmp
8	real_d	real_topright_diff_d	5	481	23	mask.bmp	blankscreen.bmp	wfn8.bmp	blankscreen.bmp	square.bmp
8	real_d	real_bottomleft_diff_d	6	409	23	mask.bmp	blankscreen.bmp	wmd8.bmp	blankscreen.bmp	square.bmp
8	real_d	real_bottomright_diff_d	7	308	18	mask.bmp	blankscreen.bmp	wfn9.bmp	blankscreen.bmp	circle.bmp
8	real_d	real_topleft_diff_d	8	667	23	mask.bmp	blankscreen.bmp	wmd9.bmp	blankscreen.bmp	square.bmp
8	real_d	real_bottomleft_diff_d	9	588	23	mask.bmp	blankscreen.bmp	wmn9.bmp	blankscreen.bmp	square.bmp
8	real_d	real_topleft_diff_d	10	399	23	mask.bmp	blankscreen.bmp	wmn8.bmp	blankscreen.bmp	square.bmp
8	real_d	real_topleft_diff_d	11	434	23	mask.bmp	blankscreen.bmp	wfn10.bmp	blankscreen.bmp	circle.bmp
8	real_d	real_topright_same_d	12	548	18	mask.bmp	blankscreen.bmp	wfd6.bmp	blankscreen.bmp	square.bmp
8	real_d	real_bottomleft_same_d	13	729	23	mask.bmp	blankscreen.bmp	wfn6.bmp	blankscreen.bmp	square.bmp
8	real_d	real_topright_diff_d	14	1160	18	mask.bmp	blankscreen.bmp	wfd9.bmp	blankscreen.bmp	circle.bmp
8	real_d	real_bottomright_same_d	15	621	18	mask.bmp	blankscreen.bmp	wfn7.bmp	blankscreen.bmp	circle.bmp
8	real_d	real_bottomleft_diff_d	16	863	18	mask.bmp	blankscreen.bmp	wfd10.bmp	blankscreen.bmp	circle.bmp
8	real_d	real_bottomleft_same_d	17	432	18	mask.bmp	blankscreen.bmp	wmn7.bmp	blankscreen.bmp	circle.bmp
8	real_d	real_bottomright_diff_d	18	634	23	mask.bmp	blankscreen.bmp	wfd8.bmp	blankscreen.bmp	square.bmp
8	real_d	real_bottomright_diff_d	19	532	18	mask.bmp	blankscreen.bmp	wmn10.bmp	blankscreen.bmp	circle.bmp
8	real_d	real_bottomright_same_d	20	674	18	mask.bmp	blankscreen.bmp	wfd7.bmp	blankscreen.bmp	circle.bmp
10	practice	practice_bottomright_diff	1	1897	23	mask.bmp	blankscreen.bmp	practice12.jpg	blankscreen.bmp	square.bmp
10	practice	practice_topright_same	2	1137	18	mask.bmp	blankscreen.bmp	practice3.jpg	blankscreen.bmp	circle.bmp
10	practice	practice_bottomright_same	3	1407	23	mask.bmp	blankscreen.bmp	practice7.jpg	blankscreen.bmp	square.bmp
10	practice	practice_topright_same	4	978	23	mask.bmp	blankscreen.bmp	practice4.jpg	blankscreen.bmp	square.bmp
10	practice	practice_topleft_same	5	919	23	mask.bmp	blankscreen.bmp	practice1.jpg	blankscreen.bmp	square.bmp
10	practice	practice_bottomright_same	6	957	23	mask.bmp	blankscreen.bmp	practice8.jpg	blankscreen.bmp	square.bmp
10	practice	practice_topleft_diff	7	1170	18	mask.bmp	blankscreen.bmp	practice9.jpg	blankscreen.bmp	circle.bmp
10	practice	practice_bottomleft_same	8	1039	18	mask.bmp	blankscreen.bmp	practice5.jpg	blankscreen.bmp	circle.bmp
10	practice	practice_topleft_same	9	841	23	mask.bmp	blankscreen.bmp	practice2.jpg	blankscreen.bmp	square.bmp
10	practice	practice_topright_diff	10	947	18	mask.bmp	blankscreen.bmp	practice10.jpg	blankscreen.bmp	circle.bmp
10	practice	practice_bottomleft_same	11	848	18	mask.bmp	blankscreen.bmp	practice6.jpg	blankscreen.bmp	circle.bmp
10	practice	practice_bottomleft_diff	12	1137	18	mask.bmp	blankscreen.bmp	practice11.jpg	blankscreen.bmp	circle.bmp
10	real_a	real_topright_diff_a	1	1417	18	mask.bmp	blankscreen.bmp	wmn1.bmp	blankscreen.bmp	circle.bmp
10	real_a	real_topleft_diff_a	2	1348	18	mask.bmp	blankscreen.bmp	wfd1.bmp	blankscreen.bmp	circle.bmp
10	real_a	real_bottomright_diff_a	3	1169	23	mask.bmp	blankscreen.bmp	wmn3.bmp	blankscreen.bmp	square.bmp
10	real_a	real_topright_diff_a	4	1030	18	mask.bmp	blankscreen.bmp	wfd2.bmp	blankscreen.bmp	circle.bmp
10	real_a	real_topleft_same_a	5	1359	23	mask.bmp	blankscreen.bmp	wfd4.bmp	blankscreen.bmp	square.bmp
10	real_a	real_topright_same_a	6	1229	18	mask.bmp	blankscreen.bmp	wfd5.bmp	blankscreen.bmp	circle.bmp
10	real_a	real_bottomright_diff_a	7	1343	23	mask.bmp	blankscreen.bmp	wmd1.bmp	blankscreen.bmp	square.bmp
10	real_a	real_bottomleft_same_a	8	1013	23	mask.bmp	blankscreen.bmp	wmd4.bmp	blankscreen.bmp	square.bmp
10	real_a	real_topright_diff_a	9	1048	23	mask.bmp	blankscreen.bmp	wmd3.bmp	blankscreen.bmp	square.bmp
10	real_a	real_topleft_diff_a	10	1153	18	mask.bmp	blankscreen.bmp	wmd2.bmp	blankscreen.bmp	circle.bmp
10	real_a	real_topleft_diff_a	11	934	23	mask.bmp	blankscreen.bmp	wfn3.bmp	blankscreen.bmp	square.bmp
10	real_a	real_bottomleft_diff_a	12	980	18	mask.bmp	blankscreen.bmp	wfn1.bmp	blankscreen.bmp	circle.bmp
10	real_a	real_bottomright_same_a	13	1416	23	mask.bmp	blankscreen.bmp	wmd5.bmp	blankscreen.bmp	square.bmp
10	real_a	real_bottomleft_same_a	14	803	18	mask.bmp	blankscreen.bmp	wfn5.bmp	blankscreen.bmp	circle.bmp
10	real_a	real_bottomright_same_a	15	1118	23	mask.bmp	blankscreen.bmp	wmn5.bmp	blankscreen.bmp	square.bmp
10	real_a	real_bottomleft_diff_a	16	884	23	mask.bmp	blankscreen.bmp	wfd3.bmp	blankscreen.bmp	square.bmp
10	real_a	real_bottomleft_diff_a	17	1140	18	mask.bmp	blankscreen.bmp	wmn2.bmp	blankscreen.bmp	circle.bmp
10	real_a	real_topleft_same_a	18	1346	23	mask.bmp	blankscreen.bmp	wfn4.bmp	blankscreen.bmp	square.bmp
10	real_a	real_bottomright_diff_a	19	1223	18	mask.bmp	blankscreen.bmp	wfn2.bmp	blankscreen.bmp	circle.bmp
10	real_a	real_topright_same_a	20	1210	23	mask.bmp	blankscreen.bmp	wmn4.bmp	blankscreen.bmp	square.bmp
10	real_b	real_topleft_diff_b	1	1436	23	mask.bmp	blankscreen.bmp	wmn6.bmp	blankscreen.bmp	square.bmp
10	real_b	real_bottomleft_same_b	2	1102	23	mask.bmp	blankscreen.bmp	wmd10.bmp	blankscreen.bmp	square.bmp
10	real_b	real_bottomleft_diff_b	3	877	23	mask.bmp	blankscreen.bmp	wmn8.bmp	blankscreen.bmp	square.bmp
10	real_b	real_topleft_same_b	4	805	23	mask.bmp	blankscreen.bmp	wmd9.bmp	blankscreen.bmp	square.bmp
10	real_b	real_bottomright_diff_b	5	849	23	mask.bmp	blankscreen.bmp	wfd6.bmp	blankscreen.bmp	square.bmp
10	real_b	real_topleft_diff_b	6	818	18	mask.bmp	blankscreen.bmp	wmd8.bmp	blankscreen.bmp	circle.bmp
10	real_b	real_topright_same_b	7	1196	18	mask.bmp	blankscreen.bmp	wfn9.bmp	blankscreen.bmp	circle.bmp
10	real_b	real_topleft_diff_b	8	904	18	mask.bmp	blankscreen.bmp	wfd7.bmp	blankscreen.bmp	circle.bmp
10	real_b	real_bottomleft_diff_b	9	903	18	mask.bmp	blankscreen.bmp	wfn7.bmp	blankscreen.bmp	circle.bmp
10	real_b	real_bottomright_same_b	10	982	23	mask.bmp	blankscreen.bmp	wfd10.bmp	blankscreen.bmp	square.bmp
10	real_b	real_bottomleft_same_b	11	1234	18	mask.bmp	blankscreen.bmp	wfd9.bmp	blankscreen.bmp	circle.bmp
10	real_b	real_bottomright_diff_b	12	1316	18	mask.bmp	blankscreen.bmp	wfn8.bmp	blankscreen.bmp	circle.bmp
10	real_b	real_topright_diff_b	13	1178	18	mask.bmp	blankscreen.bmp	wfn6.bmp	blankscreen.bmp	circle.bmp
10	real_b	real_bottomleft_diff_b	14	1071	18	mask.bmp	blankscreen.bmp	wmd6.bmp	blankscreen.bmp	circle.bmp
10	real_b	real_bottomright_same_b	15	936	23	mask.bmp	blankscreen.bmp	wfn10.bmp	blankscreen.bmp	square.bmp
10	real_b	real_topright_same_b	16	1069	23	mask.bmp	blankscreen.bmp	wmn10.bmp	blankscreen.bmp	square.bmp
10	real_b	real_topleft_same_b	17	814	23	mask.bmp	blankscreen.bmp	wmn9.bmp	blankscreen.bmp	square.bmp
10	real_b	real_topright_diff_b	18	1112	23	mask.bmp	blankscreen.bmp	wfd8.bmp	blankscreen.bmp	square.bmp
10	real_b	real_bottomright_diff_b	19	1264	23	mask.bmp	blankscreen.bmp	wmd7.bmp	blankscreen.bmp	square.bmp
10	real_b	real_topright_diff_b	20	1160	23	mask.bmp	blankscreen.bmp	wmn7.bmp	blankscreen.bmp	square.bmp
10	real_c	real_bottomleft_same_c	1	1050	23	mask.bmp	blankscreen.bmp	wmn1.bmp	blankscreen.bmp	square.bmp
10	real_c	real_bottomright_same_c	2	931	23	mask.bmp	blankscreen.bmp	wmd2.bmp	blankscreen.bmp	square.bmp
10	real_c	real_topleft_same_c	3	1049	18	mask.bmp	blankscreen.bmp	wfd1.bmp	blankscreen.bmp	circle.bmp
10	real_c	real_bottomright_diff_c	4	1291	18	mask.bmp	blankscreen.bmp	wmn4.bmp	blankscreen.bmp	circle.bmp
10	real_c	real_bottomright_diff_c	5	1043	23	mask.bmp	blankscreen.bmp	wfd5.bmp	blankscreen.bmp	square.bmp
10	real_c	real_topleft_diff_c	6	1012	23	mask.bmp	blankscreen.bmp	wfn4.bmp	blankscreen.bmp	square.bmp
10	real_c	real_bottomleft_diff_c	7	919	18	mask.bmp	blankscreen.bmp	wfd4.bmp	blankscreen.bmp	circle.bmp
10	real_c	real_bottomright_diff_c	8	1069	23	mask.bmp	blankscreen.bmp	wmd3.bmp	blankscreen.bmp	square.bmp
10	real_c	real_bottomleft_same_c	9	966	23	mask.bmp	blankscreen.bmp	wfd2.bmp	blankscreen.bmp	square.bmp
10	real_c	real_topright_same_c	10	867	23	mask.bmp	blankscreen.bmp	wfn2.bmp	blankscreen.bmp	square.bmp
10	real_c	real_bottomright_same_c	11	1155	23	mask.bmp	blankscreen.bmp	wmn2.bmp	blankscreen.bmp	square.bmp
10	real_c	real_topright_diff_c	12	1072	23	mask.bmp	blankscreen.bmp	wmd4.bmp	blankscreen.bmp	square.bmp
10	real_c	real_topright_diff_c	13	1569	23	mask.bmp	blankscreen.bmp	wmn3.bmp	blankscreen.bmp	square.bmp
10	real_c	real_topright_diff_c	14	1150	23	mask.bmp	blankscreen.bmp	wfn5.bmp	blankscreen.bmp	square.bmp
10	real_c	real_topleft_diff_c	15	1011	23	mask.bmp	blankscreen.bmp	wfd3.bmp	blankscreen.bmp	square.bmp
10	real_c	real_topleft_diff_c	16	1222	18	mask.bmp	blankscreen.bmp	wmn5.bmp	blankscreen.bmp	circle.bmp
10	real_c	real_topright_same_c	17	1033	18	mask.bmp	blankscreen.bmp	wmd1.bmp	blankscreen.bmp	circle.bmp
10	real_c	real_bottomleft_diff_c	18	987	23	mask.bmp	blankscreen.bmp	wfn3.bmp	blankscreen.bmp	square.bmp
10	real_c	real_bottomleft_diff_c	19	1078	23	mask.bmp	blankscreen.bmp	wmd5.bmp	blankscreen.bmp	square.bmp
10	real_c	real_topleft_same_c	20	975	23	mask.bmp	blankscreen.bmp	wfn1.bmp	blankscreen.bmp	square.bmp
10	real_d	real_topleft_same_d	1	1009	23	mask.bmp	blankscreen.bmp	wmn6.bmp	blankscreen.bmp	square.bmp
10	real_d	real_topleft_same_d	2	1252	23	mask.bmp	blankscreen.bmp	wmd6.bmp	blankscreen.bmp	square.bmp
10	real_d	real_bottomleft_same_d	3	1093	18	mask.bmp	blankscreen.bmp	wfn6.bmp	blankscreen.bmp	circle.bmp
10	real_d	real_topleft_diff_d	4	1117	23	mask.bmp	blankscreen.bmp	wfn10.bmp	blankscreen.bmp	square.bmp
10	real_d	real_bottomleft_diff_d	5	1371	18	mask.bmp	blankscreen.bmp	wmn9.bmp	blankscreen.bmp	circle.bmp
10	real_d	real_bottomleft_diff_d	6	1456	18	mask.bmp	blankscreen.bmp	wfd10.bmp	blankscreen.bmp	circle.bmp
10	real_d	real_topright_diff_d	7	1377	18	mask.bmp	blankscreen.bmp	wfd9.bmp	blankscreen.bmp	circle.bmp
10	real_d	real_bottomright_same_d	8	1094	18	mask.bmp	blankscreen.bmp	wfd7.bmp	blankscreen.bmp	circle.bmp
10	real_d	real_bottomright_diff_d	9	1070	23	mask.bmp	blankscreen.bmp	wfn9.bmp	blankscreen.bmp	square.bmp
10	real_d	real_topleft_diff_d	10	1119	23	mask.bmp	blankscreen.bmp	wmn8.bmp	blankscreen.bmp	square.bmp
10	real_d	real_bottomright_same_d	11	853	23	mask.bmp	blankscreen.bmp	wfn7.bmp	blankscreen.bmp	square.bmp
10	real_d	real_bottomright_diff_d	12	886	18	mask.bmp	blankscreen.bmp	wfd8.bmp	blankscreen.bmp	circle.bmp
10	real_d	real_topright_diff_d	13	718	23	mask.bmp	blankscreen.bmp	wfn8.bmp	blankscreen.bmp	square.bmp
10	real_d	real_topright_same_d	14	773	18	mask.bmp	blankscreen.bmp	wfd6.bmp	blankscreen.bmp	circle.bmp
10	real_d	real_bottomleft_diff_d	15	793	18	mask.bmp	blankscreen.bmp	wmd8.bmp	blankscreen.bmp	circle.bmp
10	real_d	real_bottomright_diff_d	16	733	18	mask.bmp	blankscreen.bmp	wmn10.bmp	blankscreen.bmp	circle.bmp
10	real_d	real_topright_diff_d	17	803	23	mask.bmp	blankscreen.bmp	wmd10.bmp	blankscreen.bmp	square.bmp
10	real_d	real_bottomleft_same_d	18	1094	23	mask.bmp	blankscreen.bmp	wmn7.bmp	blankscreen.bmp	square.bmp
10	real_d	real_topleft_diff_d	19	854	23	mask.bmp	blankscreen.bmp	wmd9.bmp	blankscreen.bmp	square.bmp
10	real_d	real_topright_same_d	20	807	18	mask.bmp	blankscreen.bmp	wmd7.bmp	blankscreen.bmp	circle.bmp
13	practice	practice_bottomright_diff	1	1171	18	mask.bmp	blankscreen.bmp	practice12.jpg	blankscreen.bmp	square.bmp
13	practice	practice_bottomleft_same	2	80	18	mask.bmp	blankscreen.bmp	practice5.jpg	blankscreen.bmp	circle.bmp
13	practice	practice_topright_same	3	4000	18	mask.bmp	blankscreen.bmp	practice4.jpg	blankscreen.bmp	circle.bmp
13	practice	practice_bottomright_same	4	579	23	mask.bmp	blankscreen.bmp	practice8.jpg	blankscreen.bmp	square.bmp
13	practice	practice_topleft_same	5	447	23	mask.bmp	blankscreen.bmp	practice2.jpg	blankscreen.bmp	square.bmp
13	practice	practice_topleft_diff	6	584	23	mask.bmp	blankscreen.bmp	practice9.jpg	blankscreen.bmp	square.bmp
13	practice	practice_topright_diff	7	420	18	mask.bmp	blankscreen.bmp	practice10.jpg	blankscreen.bmp	circle.bmp
13	practice	practice_bottomleft_same	8	887	18	mask.bmp	blankscreen.bmp	practice6.jpg	blankscreen.bmp	circle.bmp
13	practice	practice_bottomleft_diff	9	382	18	mask.bmp	blankscreen.bmp	practice11.jpg	blankscreen.bmp	circle.bmp
13	practice	practice_topleft_same	10	354	18	mask.bmp	blankscreen.bmp	practice1.jpg	blankscreen.bmp	circle.bmp
13	practice	practice_topright_same	11	495	23	mask.bmp	blankscreen.bmp	practice3.jpg	blankscreen.bmp	square.bmp
13	practice	practice_bottomright_same	12	551	23	mask.bmp	blankscreen.bmp	practice7.jpg	blankscreen.bmp	square.bmp
13	real_a	real_bottomleft_diff_a	1	814	23	mask.bmp	blankscreen.bmp	wmn2.bmp	blankscreen.bmp	square.bmp
13	real_a	real_topright_diff_a	2	1728	23	mask.bmp	blankscreen.bmp	wmd3.bmp	blankscreen.bmp	square.bmp
13	real_a	real_bottomright_same_a	3	679	23	mask.bmp	blankscreen.bmp	wmn5.bmp	blankscreen.bmp	square.bmp
13	real_a	real_topleft_diff_a	4	662	18	mask.bmp	blankscreen.bmp	wmd2.bmp	blankscreen.bmp	circle.bmp
13	real_a	real_topleft_diff_a	5	1991	18	mask.bmp	blankscreen.bmp	wfn3.bmp	blankscreen.bmp	circle.bmp
13	real_a	real_bottomleft_same_a	6	347	23	mask.bmp	blankscreen.bmp	wmd4.bmp	blankscreen.bmp	square.bmp
13	real_a	real_topleft_same_a	7	296	18	mask.bmp	blankscreen.bmp	wfn4.bmp	blankscreen.bmp	circle.bmp
13	real_a	real_bottomright_same_a	8	328	18	mask.bmp	blankscreen.bmp	wmd5.bmp	blankscreen.bmp	circle.bmp
13	real_a	real_topright_same_a	9	382	23	mask.bmp	blankscreen.bmp	wfd5.bmp	blankscreen.bmp	square.bmp
13	real_a	real_bottomleft_diff_a	10	570	18	mask.bmp	blankscreen.bmp	wfd3.bmp	blankscreen.bmp	circle.bmp
13	real_a	real_topright_diff_a	11	615	18	mask.bmp	blankscreen.bmp	wfd2.bmp	blankscreen.bmp	circle.bmp
13	real_a	real_bottomright_diff_a	12	553	18	mask.bmp	blankscreen.bmp	wmd1.bmp	blankscreen.bmp	circle.bmp
13	real_a	real_topleft_diff_a	13	398	18	mask.bmp	blankscreen.bmp	wfd1.bmp	blankscreen.bmp	circle.bmp
13	real_a	real_bottomleft_diff_a	14	369	23	mask.bmp	blankscreen.bmp	wfn1.bmp	blankscreen.bmp	square.bmp
13	real_a	real_bottomleft_same_a	15	790	18	mask.bmp	blankscreen.bmp	wfn5.bmp	blankscreen.bmp	circle.bmp
13	real_a	real_bottomright_diff_a	16	786	18	mask.bmp	blankscreen.bmp	wfn2.bmp	blankscreen.bmp	circle.bmp
13	real_a	real_topleft_same_a	17	397	18	mask.bmp	blankscreen.bmp	wfd4.bmp	blankscreen.bmp	circle.bmp
13	real_a	real_bottomright_diff_a	18	385	18	mask.bmp	blankscreen.bmp	wmn3.bmp	blankscreen.bmp	circle.bmp
13	real_a	real_topright_diff_a	19	260	18	mask.bmp	blankscreen.bmp	wmn1.bmp	blankscreen.bmp	square.bmp
13	real_a	real_topright_same_a	20	374	23	mask.bmp	blankscreen.bmp	wmn4.bmp	blankscreen.bmp	square.bmp
13	real_b	real_topright_diff_b	1	399	23	mask.bmp	blankscreen.bmp	wfn6.bmp	blankscreen.bmp	square.bmp
13	real_b	real_bottomleft_diff_b	2	314	23	mask.bmp	blankscreen.bmp	wmn8.bmp	blankscreen.bmp	square.bmp
13	real_b	real_bottomright_diff_b	3	353	23	mask.bmp	blankscreen.bmp	wfd6.bmp	blankscreen.bmp	square.bmp
13	real_b	real_bottomright_same_b	4	430	18	mask.bmp	blankscreen.bmp	wfn10.bmp	blankscreen.bmp	circle.bmp
13	real_b	real_topright_same_b	5	392	23	mask.bmp	blankscreen.bmp	wmn10.bmp	blankscreen.bmp	square.bmp
13	real_b	real_topleft_same_b	6	428	23	mask.bmp	blankscreen.bmp	wmn9.bmp	blankscreen.bmp	square.bmp
13	real_b	real_bottomright_diff_b	7	550	18	mask.bmp	blankscreen.bmp	wmd7.bmp	blankscreen.bmp	circle.bmp
13	real_b	real_topleft_diff_b	8	555	18	mask.bmp	blankscreen.bmp	wfd7.bmp	blankscreen.bmp	circle.bmp
13	real_b	real_topright_diff_b	9	384	23	mask.bmp	blankscreen.bmp	wfd8.bmp	blankscreen.bmp	square.bmp
13	real_b	real_bottomleft_diff_b	10	500	18	mask.bmp	blankscreen.bmp	wfn7.bmp	blankscreen.bmp	circle.bmp
13	real_b	real_bottomright_diff_b	11	323	23	mask.bmp	blankscreen.bmp	wfn8.bmp	blankscreen.bmp	square.bmp
13	real_b	real_bottomright_same_b	12	386	23	mask.bmp	blankscreen.bmp	wfd10.bmp	blankscreen.bmp	square.bmp
13	real_b	real_topright_diff_b	13	301	18	mask.bmp	blankscreen.bmp	wmn7.bmp	blankscreen.bmp	circle.bmp
13	real_b	real_bottomleft_same_b	14	573	18	mask.bmp	blankscreen.bmp	wmd10.bmp	blankscreen.bmp	circle.bmp
13	real_b	real_topright_same_b	15	753	23	mask.bmp	blankscreen.bmp	wfn9.bmp	blankscreen.bmp	square.bmp
13	real_b	real_topleft_diff_b	16	358	18	mask.bmp	blankscreen.bmp	wmn6.bmp	blankscreen.bmp	circle.bmp
13	real_b	real_bottomleft_diff_b	17	1259	23	mask.bmp	blankscreen.bmp	wmd6.bmp	blankscreen.bmp	square.bmp
13	real_b	real_topleft_diff_b	18	412	18	mask.bmp	blankscreen.bmp	wmd8.bmp	blankscreen.bmp	circle.bmp
13	real_b	real_bottomleft_same_b	19	703	18	mask.bmp	blankscreen.bmp	wfd9.bmp	blankscreen.bmp	circle.bmp
13	real_b	real_topleft_same_b	20	526	23	mask.bmp	blankscreen.bmp	wmd9.bmp	blankscreen.bmp	circle.bmp
13	real_c	real_topleft_diff_c	1	524	18	mask.bmp	blankscreen.bmp	wfn4.bmp	blankscreen.bmp	circle.bmp
13	real_c	real_topright_diff_c	2	507	18	mask.bmp	blankscreen.bmp	wfn5.bmp	blankscreen.bmp	circle.bmp
13	real_c	real_bottomright_same_c	3	426	18	mask.bmp	blankscreen.bmp	wmd2.bmp	blankscreen.bmp	circle.bmp
13	real_c	real_topleft_same_c	4	388	23	mask.bmp	blankscreen.bmp	wfd1.bmp	blankscreen.bmp	square.bmp
13	real_c	real_topleft_diff_c	5	392	18	mask.bmp	blankscreen.bmp	wmn5.bmp	blankscreen.bmp	circle.bmp
13	real_c	real_topright_same_c	6	372	23	mask.bmp	blankscreen.bmp	wfn2.bmp	blankscreen.bmp	square.bmp
13	real_c	real_bottomright_diff_c	7	377	23	mask.bmp	blankscreen.bmp	wmn4.bmp	blankscreen.bmp	square.bmp
13	real_c	real_topright_same_c	8	413	18	mask.bmp	blankscreen.bmp	wmd1.bmp	blankscreen.bmp	circle.bmp
13	real_c	real_bottomright_diff_c	9	447	23	mask.bmp	blankscreen.bmp	wfd5.bmp	blankscreen.bmp	square.bmp
13	real_c	real_bottomright_diff_c	10	393	18	mask.bmp	blankscreen.bmp	wmd3.bmp	blankscreen.bmp	circle.bmp
13	real_c	real_topleft_diff_c	11	285	23	mask.bmp	blankscreen.bmp	wfd3.bmp	blankscreen.bmp	circle.bmp
13	real_c	real_bottomleft_diff_c	12	404	18	mask.bmp	blankscreen.bmp	wfd4.bmp	blankscreen.bmp	circle.bmp
13	real_c	real_topleft_same_c	13	383	23	mask.bmp	blankscreen.bmp	wfn1.bmp	blankscreen.bmp	square.bmp
13	real_c	real_topright_diff_c	14	339	18	mask.bmp	blankscreen.bmp	wmn3.bmp	blankscreen.bmp	circle.bmp
13	real_c	real_topright_diff_c	15	393	23	mask.bmp	blankscreen.bmp	wmd4.bmp	blankscreen.bmp	square.bmp
13	real_c	real_bottomleft_same_c	16	397	18	mask.bmp	blankscreen.bmp	wfd2.bmp	blankscreen.bmp	circle.bmp
13	real_c	real_bottomleft_diff_c	17	312	23	mask.bmp	blankscreen.bmp	wfn3.bmp	blankscreen.bmp	square.bmp
13	real_c	real_bottomright_same_c	18	407	23	mask.bmp	blankscreen.bmp	wmn2.bmp	blankscreen.bmp	square.bmp
13	real_c	real_bottomleft_diff_c	19	306	18	mask.bmp	blankscreen.bmp	wmd5.bmp	blankscreen.bmp	circle.bmp
13	real_c	real_bottomleft_same_c	20	385	18	mask.bmp	blankscreen.bmp	wmn1.bmp	blankscreen.bmp	circle.bmp
