subject	blockcode	trialcode	trialnum	latency	response	stimulusitem1	stimulusitem2	stimulusitem3	stimulusitem4	stimulusitem5										
401	practice	practice_bottomright_diff	2	1058	18	mask.bmp	blankscreen.bmp	practice12.jpg	blankscreen.bmp	circle.bmp										
401	practice	practice_bottomleft_same	3	496	18	mask.bmp	blankscreen.bmp	practice6.jpg	blankscreen.bmp	circle.bmp										
401	practice	practice_topright_same	4	1214	18	mask.bmp	blankscreen.bmp	practice3.jpg	blankscreen.bmp	circle.bmp										
401	practice	practice_bottomright_same	5	806	23	mask.bmp	blankscreen.bmp	practice7.jpg	blankscreen.bmp	square.bmp										
401	practice	practice_topleft_diff	6	687	18	mask.bmp	blankscreen.bmp	practice9.jpg	blankscreen.bmp	circle.bmp										
401	practice	practice_bottomleft_diff	7	588	18	mask.bmp	blankscreen.bmp	practice11.jpg	blankscreen.bmp	circle.bmp										
401	practice	practice_topright_same	8	382	18	mask.bmp	blankscreen.bmp	practice4.jpg	blankscreen.bmp	circle.bmp										
401	practice	practice_bottomleft_same	9	536	23	mask.bmp	blankscreen.bmp	practice5.jpg	blankscreen.bmp	square.bmp										
401	practice	practice_topleft_same	10	523	18	mask.bmp	blankscreen.bmp	practice1.jpg	blankscreen.bmp	circle.bmp										
401	practice	practice_bottomright_same	11	431	18	mask.bmp	blankscreen.bmp	practice8.jpg	blankscreen.bmp	square.bmp										
401	practice	practice_topleft_same	12	671	23	mask.bmp	blankscreen.bmp	practice2.jpg	blankscreen.bmp	square.bmp										
401	real_a	real_bottomleft_diff_a	1	1095	18	mask.bmp	blankscreen.bmp	wfn1.bmp	blankscreen.bmp	circle.bmp										
401	real_a	real_topright_diff_a	2	437	18	mask.bmp	blankscreen.bmp	wmn1.bmp	blankscreen.bmp	circle.bmp										
401	real_a	real_topleft_diff_a	3	718	23	mask.bmp	blankscreen.bmp	wmd2.bmp	blankscreen.bmp	square.bmp										
401	real_a	real_topright_diff_a	4	692	23	mask.bmp	blankscreen.bmp	wmd3.bmp	blankscreen.bmp	square.bmp										
401	real_a	real_bottomright_diff_a	5	554	23	mask.bmp	blankscreen.bmp	wmn3.bmp	blankscreen.bmp	square.bmp										
401	real_a	real_topleft_same_a	6	486	23	mask.bmp	blankscreen.bmp	wfn4.bmp	blankscreen.bmp	square.bmp										
401	real_a	real_bottomright_diff_a	7	725	18	mask.bmp	blankscreen.bmp	wfn2.bmp	blankscreen.bmp	circle.bmp										
401	real_a	real_bottomright_same_a	8	922	18	mask.bmp	blankscreen.bmp	wmn5.bmp	blankscreen.bmp	circle.bmp										
401	real_a	real_topleft_same_a	9	952	23	mask.bmp	blankscreen.bmp	wfd4.bmp	blankscreen.bmp	circle.bmp										
401	real_a	real_topright_same_a	10	396	23	mask.bmp	blankscreen.bmp	wmn4.bmp	blankscreen.bmp	square.bmp										
401	real_a	real_topleft_diff_a	11	390	18	mask.bmp	blankscreen.bmp	wfn3.bmp	blankscreen.bmp	circle.bmp										
401	real_a	real_bottomleft_diff_a	12	609	18	mask.bmp	blankscreen.bmp	wmn2.bmp	blankscreen.bmp	circle.bmp										
401	real_a	real_bottomright_diff_a	13	739	23	mask.bmp	blankscreen.bmp	wmd1.bmp	blankscreen.bmp	square.bmp										
401	real_a	real_bottomleft_same_a	14	760	23	mask.bmp	blankscreen.bmp	wfn5.bmp	blankscreen.bmp	square.bmp										
401	real_a	real_topright_same_a	15	1084	23	mask.bmp	blankscreen.bmp	wfd5.bmp	blankscreen.bmp	square.bmp										
401	real_a	real_topright_diff_a	16	667	23	mask.bmp	blankscreen.bmp	wfd2.bmp	blankscreen.bmp	square.bmp										
401	real_a	real_bottomright_same_a	17	738	23	mask.bmp	blankscreen.bmp	wmd5.bmp	blankscreen.bmp	square.bmp										
401	real_a	real_bottomleft_diff_a	18	839	18	mask.bmp	blankscreen.bmp	wfd3.bmp	blankscreen.bmp	circle.bmp										
401	real_a	real_topleft_diff_a	19	696	23	mask.bmp	blankscreen.bmp	wfd1.bmp	blankscreen.bmp	square.bmp										
401	real_a	real_bottomleft_same_a	20	742	18	mask.bmp	blankscreen.bmp	wmd4.bmp	blankscreen.bmp	circle.bmp										
401	real_b	real_bottomleft_same_b	1	646	23	mask.bmp	blankscreen.bmp	wfd9.bmp	blankscreen.bmp	square.bmp										
401	real_b	real_topright_same_b	2	718	18	mask.bmp	blankscreen.bmp	wfn9.bmp	blankscreen.bmp	circle.bmp										
401	real_b	real_bottomright_diff_b	3	507	23	mask.bmp	blankscreen.bmp	wfd6.bmp	blankscreen.bmp	square.bmp										
401	real_b	real_bottomright_same_b	4	513	23	mask.bmp	blankscreen.bmp	wfd10.bmp	blankscreen.bmp	square.bmp										
401	real_b	real_topleft_same_b	5	535	18	mask.bmp	blankscreen.bmp	wmn9.bmp	blankscreen.bmp	circle.bmp										
401	real_b	real_bottomleft_diff_b	6	628	18	mask.bmp	blankscreen.bmp	wfn7.bmp	blankscreen.bmp	circle.bmp										
401	real_b	real_topleft_diff_b	7	413	23	mask.bmp	blankscreen.bmp	wmd8.bmp	blankscreen.bmp	square.bmp										
401	real_b	real_bottomleft_same_b	8	999	18	mask.bmp	blankscreen.bmp	wmd10.bmp	blankscreen.bmp	circle.bmp										
401	real_b	real_bottomright_same_b	9	441	18	mask.bmp	blankscreen.bmp	wfn10.bmp	blankscreen.bmp	circle.bmp										
401	real_b	real_bottomright_diff_b	10	458	18	mask.bmp	blankscreen.bmp	wmd7.bmp	blankscreen.bmp	circle.bmp										
401	real_b	real_topleft_same_b	11	706	23	mask.bmp	blankscreen.bmp	wmd9.bmp	blankscreen.bmp	square.bmp										
401	real_b	real_bottomleft_diff_b	12	448	18	mask.bmp	blankscreen.bmp	wmn8.bmp	blankscreen.bmp	circle.bmp										
401	real_b	real_topright_diff_b	13	608	23	mask.bmp	blankscreen.bmp	wfn6.bmp	blankscreen.bmp	square.bmp										
401	real_b	real_topleft_diff_b	14	690	23	mask.bmp	blankscreen.bmp	wmn6.bmp	blankscreen.bmp	square.bmp										
401	real_b	real_topright_same_b	15	529	18	mask.bmp	blankscreen.bmp	wmn10.bmp	blankscreen.bmp	circle.bmp										
401	real_b	real_topleft_diff_b	16	1006	23	mask.bmp	blankscreen.bmp	wfd7.bmp	blankscreen.bmp	circle.bmp										
401	real_b	real_topright_diff_b	17	888	23	mask.bmp	blankscreen.bmp	wfd8.bmp	blankscreen.bmp	square.bmp										
401	real_b	real_bottomright_diff_b	18	711	18	mask.bmp	blankscreen.bmp	wfn8.bmp	blankscreen.bmp	circle.bmp										
401	real_b	real_topright_diff_b	19	1069	23	mask.bmp	blankscreen.bmp	wmn7.bmp	blankscreen.bmp	square.bmp										
401	real_b	real_bottomleft_diff_b	20	548	23	mask.bmp	blankscreen.bmp	wmd6.bmp	blankscreen.bmp	square.bmp										
401	real_c	real_bottomright_diff_c	1	1102	23	mask.bmp	blankscreen.bmp	wfd5.bmp	blankscreen.bmp	square.bmp										
401	real_c	real_topleft_same_c	2	844	18	mask.bmp	blankscreen.bmp	wfd1.bmp	blankscreen.bmp	circle.bmp										
401	real_c	real_topleft_diff_c	3	660	23	mask.bmp	blankscreen.bmp	wfd3.bmp	blankscreen.bmp	circle.bmp										
401	real_c	real_topright_same_c	4	1076	18	mask.bmp	blankscreen.bmp	wfn2.bmp	blankscreen.bmp	circle.bmp										
401	real_c	real_bottomleft_diff_c	5	1323	23	mask.bmp	blankscreen.bmp	wfd4.bmp	blankscreen.bmp	square.bmp										
401	real_c	real_topleft_diff_c	6	592	18	mask.bmp	blankscreen.bmp	wfn4.bmp	blankscreen.bmp	circle.bmp										
401	real_c	real_bottomright_diff_c	7	563	23	mask.bmp	blankscreen.bmp	wmd3.bmp	blankscreen.bmp	square.bmp										
401	real_c	real_bottomright_same_c	8	583	23	mask.bmp	blankscreen.bmp	wmn2.bmp	blankscreen.bmp	square.bmp										
401	real_c	real_topleft_same_c	9	626	23	mask.bmp	blankscreen.bmp	wfn1.bmp	blankscreen.bmp	square.bmp										
401	real_c	real_bottomright_diff_c	10	644	23	mask.bmp	blankscreen.bmp	wmn4.bmp	blankscreen.bmp	square.bmp										
401	real_c	real_bottomright_same_c	11	628	23	mask.bmp	blankscreen.bmp	wmd2.bmp	blankscreen.bmp	square.bmp										
401	real_c	real_topright_same_c	12	638	18	mask.bmp	blankscreen.bmp	wmd1.bmp	blankscreen.bmp	circle.bmp										
401	real_c	real_topleft_diff_c	13	598	18	mask.bmp	blankscreen.bmp	wmn5.bmp	blankscreen.bmp	circle.bmp										
401	real_c	real_topright_diff_c	14	712	18	mask.bmp	blankscreen.bmp	wmn3.bmp	blankscreen.bmp	circle.bmp										
401	real_c	real_bottomleft_diff_c	15	518	23	mask.bmp	blankscreen.bmp	wmd5.bmp	blankscreen.bmp	square.bmp										
401	real_c	real_bottomleft_same_c	16	579	23	mask.bmp	blankscreen.bmp	wmn1.bmp	blankscreen.bmp	circle.bmp										
401	real_c	real_bottomleft_same_c	17	782	18	mask.bmp	blankscreen.bmp	wfd2.bmp	blankscreen.bmp	circle.bmp										
401	real_c	real_topright_diff_c	18	609	23	mask.bmp	blankscreen.bmp	wmd4.bmp	blankscreen.bmp	square.bmp										
401	real_c	real_bottomleft_diff_c	19	795	18	mask.bmp	blankscreen.bmp	wfn3.bmp	blankscreen.bmp	circle.bmp										
401	real_c	real_topright_diff_c	20	638	23	mask.bmp	blankscreen.bmp	wfn5.bmp	blankscreen.bmp	square.bmp										
401	real_d	real_bottomleft_diff_d	1	1692	23	mask.bmp	blankscreen.bmp	wmn9.bmp	blankscreen.bmp	square.bmp										
401	real_d	real_topright_same_d	2	635	18	mask.bmp	blankscreen.bmp	wmd7.bmp	blankscreen.bmp	circle.bmp										
401	real_d	real_topright_diff_d	3	1059	18	mask.bmp	blankscreen.bmp	wmd10.bmp	blankscreen.bmp	circle.bmp										
401	real_d	real_bottomright_diff_d	4	619	23	mask.bmp	blankscreen.bmp	wfd8.bmp	blankscreen.bmp	square.bmp										
401	real_d	real_bottomright_same_d	5	1517	23	mask.bmp	blankscreen.bmp	wfn7.bmp	blankscreen.bmp	square.bmp										
401	real_d	real_topright_same_d	6	682	23	mask.bmp	blankscreen.bmp	wfd6.bmp	blankscreen.bmp	square.bmp										
401	real_d	real_topleft_diff_d	7	673	18	mask.bmp	blankscreen.bmp	wmd9.bmp	blankscreen.bmp	circle.bmp										
401	real_d	real_bottomright_same_d	8	760	18	mask.bmp	blankscreen.bmp	wfd7.bmp	blankscreen.bmp	circle.bmp										
401	real_d	real_bottomleft_same_d	9	596	18	mask.bmp	blankscreen.bmp	wfn6.bmp	blankscreen.bmp	circle.bmp										
401	real_d	real_bottomleft_same_d	10	511	18	mask.bmp	blankscreen.bmp	wmn7.bmp	blankscreen.bmp	circle.bmp										
401	real_d	real_topleft_diff_d	11	597	18	mask.bmp	blankscreen.bmp	wfn10.bmp	blankscreen.bmp	circle.bmp										
401	real_d	real_topright_diff_d	12	815	18	mask.bmp	blankscreen.bmp	wfn8.bmp	blankscreen.bmp	circle.bmp										
401	real_d	real_topleft_same_d	13	689	23	mask.bmp	blankscreen.bmp	wmn6.bmp	blankscreen.bmp	square.bmp										
401	real_d	real_bottomleft_diff_d	14	799	18	mask.bmp	blankscreen.bmp	wfd10.bmp	blankscreen.bmp	circle.bmp										
401	real_d	real_topright_diff_d	15	721	23	mask.bmp	blankscreen.bmp	wfd9.bmp	blankscreen.bmp	square.bmp										
401	real_d	real_bottomleft_diff_d	16	543	18	mask.bmp	blankscreen.bmp	wmd8.bmp	blankscreen.bmp	square.bmp										
401	real_d	real_topleft_same_d	17	780	23	mask.bmp	blankscreen.bmp	wmd6.bmp	blankscreen.bmp	square.bmp										
401	real_d	real_bottomright_diff_d	18	1134	18	mask.bmp	blankscreen.bmp	wfn9.bmp	blankscreen.bmp	circle.bmp										
401	real_d	real_bottomright_diff_d	19	1075	18	mask.bmp	blankscreen.bmp	wmn10.bmp	blankscreen.bmp	circle.bmp										
401	real_d	real_topleft_diff_d	20	594	18	mask.bmp	blankscreen.bmp	wmn8.bmp	blankscreen.bmp	circle.bmp										
402	practice	practice_topleft_same	1	5210	23	mask.bmp	blankscreen.bmp	practice2.jpg	blankscreen.bmp	circle.bmp										
402	practice	practice_topleft_same	2	491	23	mask.bmp	blankscreen.bmp	practice1.jpg	blankscreen.bmp	circle.bmp										
402	practice	practice_bottomleft_same	3	536	23	mask.bmp	blankscreen.bmp	practice5.jpg	blankscreen.bmp	circle.bmp										
402	practice	practice_bottomleft_same	4	948	18	mask.bmp	blankscreen.bmp	practice6.jpg	blankscreen.bmp	square.bmp										
402	practice	practice_bottomright_diff	5	2143	23	mask.bmp	blankscreen.bmp	practice12.jpg	blankscreen.bmp	circle.bmp										
402	practice	practice_topleft_diff	6	618	18	mask.bmp	blankscreen.bmp	practice9.jpg	blankscreen.bmp	square.bmp										
402	practice	practice_topright_same	7	530	18	mask.bmp	blankscreen.bmp	practice4.jpg	blankscreen.bmp	square.bmp										
402	practice	practice_bottomleft_diff	8	678	18	mask.bmp	blankscreen.bmp	practice11.jpg	blankscreen.bmp	square.bmp										
402	practice	practice_bottomright_same	9	484	18	mask.bmp	blankscreen.bmp	practice8.jpg	blankscreen.bmp	square.bmp										
402	practice	practice_bottomright_same	10	930	23	mask.bmp	blankscreen.bmp	practice7.jpg	blankscreen.bmp	circle.bmp										
402	practice	practice_topright_diff	11	910	23	mask.bmp	blankscreen.bmp	practice10.jpg	blankscreen.bmp	circle.bmp										
402	practice	practice_topright_same	12	570	18	mask.bmp	blankscreen.bmp	practice3.jpg	blankscreen.bmp	square.bmp										
402	real_a	real_bottomleft_diff_a	1	623	18	mask.bmp	blankscreen.bmp	wfd3.bmp	blankscreen.bmp	circle.bmp										
402	real_a	real_topright_same_a	2	537	23	mask.bmp	blankscreen.bmp	wfd5.bmp	blankscreen.bmp	square.bmp										
402	real_a	real_topleft_diff_a	3	509	18	mask.bmp	blankscreen.bmp	wfn3.bmp	blankscreen.bmp	circle.bmp										
402	real_a	real_bottomright_same_a	4	499	23	mask.bmp	blankscreen.bmp	wmd5.bmp	blankscreen.bmp	square.bmp										
402	real_a	real_topleft_same_a	5	545	18	mask.bmp	blankscreen.bmp	wfd4.bmp	blankscreen.bmp	circle.bmp										
402	real_a	real_bottomright_diff_a	6	454	23	mask.bmp	blankscreen.bmp	wmd1.bmp	blankscreen.bmp	square.bmp										
402	real_a	real_topleft_same_a	7	414	18	mask.bmp	blankscreen.bmp	wfn4.bmp	blankscreen.bmp	circle.bmp										
402	real_a	real_topright_diff_a	8	431	23	mask.bmp	blankscreen.bmp	wmn1.bmp	blankscreen.bmp	square.bmp										
402	real_a	real_topleft_diff_a	9	376	23	mask.bmp	blankscreen.bmp	wmd2.bmp	blankscreen.bmp	square.bmp										
402	real_a	real_bottomleft_same_a	10	364	23	mask.bmp	blankscreen.bmp	wmd4.bmp	blankscreen.bmp	square.bmp										
402	real_a	real_bottomleft_diff_a	11	504	23	mask.bmp	blankscreen.bmp	wfn1.bmp	blankscreen.bmp	square.bmp										
402	real_a	real_bottomleft_diff_a	12	430	23	mask.bmp	blankscreen.bmp	wmn2.bmp	blankscreen.bmp	square.bmp										
402	real_a	real_bottomright_diff_a	13	407	18	mask.bmp	blankscreen.bmp	wmn3.bmp	blankscreen.bmp	circle.bmp										
402	real_a	real_topright_same_a	14	329	18	mask.bmp	blankscreen.bmp	wmn4.bmp	blankscreen.bmp	circle.bmp										
402	real_a	real_topright_diff_a	15	446	18	mask.bmp	blankscreen.bmp	wmd3.bmp	blankscreen.bmp	circle.bmp										
402	real_a	real_topright_diff_a	16	431	23	mask.bmp	blankscreen.bmp	wfd2.bmp	blankscreen.bmp	square.bmp										
402	real_a	real_bottomright_diff_a	17	448	23	mask.bmp	blankscreen.bmp	wfn2.bmp	blankscreen.bmp	square.bmp										
402	real_a	real_bottomleft_same_a	18	440	18	mask.bmp	blankscreen.bmp	wfn5.bmp	blankscreen.bmp	circle.bmp										
402	real_a	real_topleft_diff_a	19	417	23	mask.bmp	blankscreen.bmp	wfd1.bmp	blankscreen.bmp	square.bmp										
402	real_a	real_bottomright_same_a	20	450	23	mask.bmp	blankscreen.bmp	wmn5.bmp	blankscreen.bmp	square.bmp										
402	real_b	real_topright_diff_b	1	451	18	mask.bmp	blankscreen.bmp	wfn6.bmp	blankscreen.bmp	circle.bmp										
402	real_b	real_bottomleft_diff_b	2	483	18	mask.bmp	blankscreen.bmp	wfn7.bmp	blankscreen.bmp	circle.bmp										
402	real_b	real_topright_same_b	3	418	18	mask.bmp	blankscreen.bmp	wfn9.bmp	blankscreen.bmp	circle.bmp										
402	real_b	real_topleft_same_b	4	355	18	mask.bmp	blankscreen.bmp	wmd9.bmp	blankscreen.bmp	circle.bmp										
402	real_b	real_bottomright_diff_b	5	359	18	mask.bmp	blankscreen.bmp	wfn8.bmp	blankscreen.bmp	circle.bmp										
402	real_b	real_topleft_diff_b	6	371	23	mask.bmp	blankscreen.bmp	wfd7.bmp	blankscreen.bmp	square.bmp										
402	real_b	real_bottomleft_diff_b	7	367	23	mask.bmp	blankscreen.bmp	wmn8.bmp	blankscreen.bmp	square.bmp										
402	real_b	real_bottomright_same_b	8	387	23	mask.bmp	blankscreen.bmp	wfd10.bmp	blankscreen.bmp	square.bmp										
402	real_b	real_topleft_diff_b	9	469	23	mask.bmp	blankscreen.bmp	wmd8.bmp	blankscreen.bmp	square.bmp										
402	real_b	real_topright_diff_b	10	341	23	mask.bmp	blankscreen.bmp	wmn7.bmp	blankscreen.bmp	square.bmp										
402	real_b	real_bottomleft_diff_b	11	369	18	mask.bmp	blankscreen.bmp	wmd6.bmp	blankscreen.bmp	circle.bmp										
402	real_b	real_bottomright_diff_b	12	381	18	mask.bmp	blankscreen.bmp	wmd7.bmp	blankscreen.bmp	circle.bmp										
402	real_b	real_topright_same_b	13	424	23	mask.bmp	blankscreen.bmp	wmn10.bmp	blankscreen.bmp	square.bmp										
402	real_b	real_bottomright_same_b	14	425	23	mask.bmp	blankscreen.bmp	wfn10.bmp	blankscreen.bmp	square.bmp										
402	real_b	real_topleft_same_b	15	363	23	mask.bmp	blankscreen.bmp	wmn9.bmp	blankscreen.bmp	square.bmp										
402	real_b	real_topleft_diff_b	16	311	23	mask.bmp	blankscreen.bmp	wmn6.bmp	blankscreen.bmp	square.bmp										
402	real_b	real_bottomleft_same_b	17	308	18	mask.bmp	blankscreen.bmp	wfd9.bmp	blankscreen.bmp	circle.bmp										
402	real_b	real_bottomright_diff_b	18	362	23	mask.bmp	blankscreen.bmp	wfd6.bmp	blankscreen.bmp	square.bmp										
402	real_b	real_topright_diff_b	19	334	18	mask.bmp	blankscreen.bmp	wfd8.bmp	blankscreen.bmp	circle.bmp										
402	real_b	real_bottomleft_same_b	20	323	18	mask.bmp	blankscreen.bmp	wmd10.bmp	blankscreen.bmp	circle.bmp										
402	real_c	real_topleft_same_c	1	359	23	mask.bmp	blankscreen.bmp	wfn1.bmp	blankscreen.bmp	square.bmp										
402	real_c	real_bottomleft_diff_c	2	355	23	mask.bmp	blankscreen.bmp	wfn3.bmp	blankscreen.bmp	square.bmp										
402	real_c	real_bottomleft_same_c	3	384	18	mask.bmp	blankscreen.bmp	wmn1.bmp	blankscreen.bmp	circle.bmp										
402	real_c	real_bottomleft_diff_c	4	378	23	mask.bmp	blankscreen.bmp	wmd5.bmp	blankscreen.bmp	square.bmp										
402	real_c	real_bottomright_same_c	5	446	18	mask.bmp	blankscreen.bmp	wmn2.bmp	blankscreen.bmp	circle.bmp										
402	real_c	real_topright_diff_c	6	542	18	mask.bmp	blankscreen.bmp	wfn5.bmp	blankscreen.bmp	circle.bmp										
402	real_c	real_topright_same_c	7	418	23	mask.bmp	blankscreen.bmp	wfn2.bmp	blankscreen.bmp	square.bmp										
402	real_c	real_bottomright_same_c	8	372	23	mask.bmp	blankscreen.bmp	wmd2.bmp	blankscreen.bmp	square.bmp										
402	real_c	real_topright_diff_c	9	368	18	mask.bmp	blankscreen.bmp	wmn3.bmp	blankscreen.bmp	circle.bmp										
402	real_c	real_topleft_diff_c	10	419	23	mask.bmp	blankscreen.bmp	wmn5.bmp	blankscreen.bmp	square.bmp										
402	real_c	real_bottomleft_diff_c	11	340	23	mask.bmp	blankscreen.bmp	wfd4.bmp	blankscreen.bmp	square.bmp										
402	real_c	real_bottomright_diff_c	12	393	23	mask.bmp	blankscreen.bmp	wfd5.bmp	blankscreen.bmp	square.bmp										
402	real_c	real_topleft_diff_c	13	435	18	mask.bmp	blankscreen.bmp	wfn4.bmp	blankscreen.bmp	circle.bmp										
402	real_c	real_bottomright_diff_c	14	428	23	mask.bmp	blankscreen.bmp	wmd3.bmp	blankscreen.bmp	square.bmp										
402	real_c	real_topleft_diff_c	15	453	18	mask.bmp	blankscreen.bmp	wfd3.bmp	blankscreen.bmp	circle.bmp										
402	real_c	real_topleft_same_c	16	357	18	mask.bmp	blankscreen.bmp	wfd1.bmp	blankscreen.bmp	circle.bmp										
402	real_c	real_bottomleft_same_c	17	433	23	mask.bmp	blankscreen.bmp	wfd2.bmp	blankscreen.bmp	square.bmp										
402	real_c	real_bottomright_diff_c	18	498	18	mask.bmp	blankscreen.bmp	wmn4.bmp	blankscreen.bmp	circle.bmp										
402	real_c	real_topright_diff_c	19	464	18	mask.bmp	blankscreen.bmp	wmd4.bmp	blankscreen.bmp	circle.bmp										
402	real_c	real_topright_same_c	20	480	23	mask.bmp	blankscreen.bmp	wmd1.bmp	blankscreen.bmp	square.bmp										
402	real_d	real_bottomright_diff_d	1	452	23	mask.bmp	blankscreen.bmp	wfd8.bmp	blankscreen.bmp	square.bmp										
402	real_d	real_bottomleft_diff_d	2	348	23	mask.bmp	blankscreen.bmp	wmd8.bmp	blankscreen.bmp	square.bmp										
402	real_d	real_bottomright_same_d	3	360	23	mask.bmp	blankscreen.bmp	wfd7.bmp	blankscreen.bmp	square.bmp										
402	real_d	real_topleft_diff_d	4	348	18	mask.bmp	blankscreen.bmp	wfn10.bmp	blankscreen.bmp	circle.bmp										
402	real_d	real_topleft_same_d	5	385	23	mask.bmp	blankscreen.bmp	wmn6.bmp	blankscreen.bmp	square.bmp										
402	real_d	real_topright_diff_d	6	315	18	mask.bmp	blankscreen.bmp	wmd10.bmp	blankscreen.bmp	circle.bmp										
402	real_d	real_bottomright_same_d	7	377	18	mask.bmp	blankscreen.bmp	wfn7.bmp	blankscreen.bmp	circle.bmp										
402	real_d	real_bottomleft_diff_d	8	356	18	mask.bmp	blankscreen.bmp	wfd10.bmp	blankscreen.bmp	circle.bmp										
402	real_d	real_topleft_diff_d	9	288	23	mask.bmp	blankscreen.bmp	wmd9.bmp	blankscreen.bmp	square.bmp										
402	real_d	real_bottomleft_same_d	10	351	18	mask.bmp	blankscreen.bmp	wmn7.bmp	blankscreen.bmp	circle.bmp										
402	real_d	real_bottomleft_same_d	11	307	18	mask.bmp	blankscreen.bmp	wfn6.bmp	blankscreen.bmp	circle.bmp										
402	real_d	real_topright_diff_d	12	304	18	mask.bmp	blankscreen.bmp	wfd9.bmp	blankscreen.bmp	circle.bmp										
402	real_d	real_topleft_same_d	13	286	18	mask.bmp	blankscreen.bmp	wmd6.bmp	blankscreen.bmp	circle.bmp										
402	real_d	real_topright_diff_d	14	309	18	mask.bmp	blankscreen.bmp	wfn8.bmp	blankscreen.bmp	circle.bmp										
402	real_d	real_bottomright_diff_d	15	331	23	mask.bmp	blankscreen.bmp	wmn10.bmp	blankscreen.bmp	square.bmp										
402	real_d	real_topright_same_d	16	391	23	mask.bmp	blankscreen.bmp	wfd6.bmp	blankscreen.bmp	square.bmp										
402	real_d	real_topright_same_d	17	322	18	mask.bmp	blankscreen.bmp	wmd7.bmp	blankscreen.bmp	circle.bmp										
402	real_d	real_bottomleft_diff_d	18	303	23	mask.bmp	blankscreen.bmp	wmn9.bmp	blankscreen.bmp	square.bmp										
402	real_d	real_topleft_diff_d	19	317	18	mask.bmp	blankscreen.bmp	wmn8.bmp	blankscreen.bmp	circle.bmp										
402	real_d	real_bottomright_diff_d	20	259	18	mask.bmp	blankscreen.bmp	wfn9.bmp	blankscreen.bmp	square.bmp										
403	practice	practice_topleft_same	1	798	18	mask.bmp	blankscreen.bmp	practice2.jpg	blankscreen.bmp	circle.bmp										
403	practice	practice_bottomright_same	2	6487	18	mask.bmp	blankscreen.bmp	practice7.jpg	blankscreen.bmp	circle.bmp										
403	practice	practice_topright_same	3	1189	23	mask.bmp	blankscreen.bmp	practice4.jpg	blankscreen.bmp	square.bmp										
403	practice	practice_bottomright_same	4	334	18	mask.bmp	blankscreen.bmp	practice8.jpg	blankscreen.bmp	square.bmp										
403	practice	practice_bottomleft_same	5	513	23	mask.bmp	blankscreen.bmp	practice6.jpg	blankscreen.bmp	square.bmp										
403	practice	practice_bottomleft_same	6	494	18	mask.bmp	blankscreen.bmp	practice5.jpg	blankscreen.bmp	circle.bmp										
403	practice	practice_bottomleft_diff	7	131	23	mask.bmp	blankscreen.bmp	practice11.jpg	blankscreen.bmp	circle.bmp										
403	practice	practice_topright_diff	8	727	18	mask.bmp	blankscreen.bmp	practice10.jpg	blankscreen.bmp	circle.bmp										
403	practice	practice_topleft_same	9	363	18	mask.bmp	blankscreen.bmp	practice1.jpg	blankscreen.bmp	circle.bmp										
403	practice	practice_topright_same	10	70	18	mask.bmp	blankscreen.bmp	practice3.jpg	blankscreen.bmp	square.bmp										
403	practice	practice_bottomright_diff	11	444	23	mask.bmp	blankscreen.bmp	practice12.jpg	blankscreen.bmp	square.bmp										
403	practice	practice_topleft_diff	12	547	18	mask.bmp	blankscreen.bmp	practice9.jpg	blankscreen.bmp	circle.bmp										
403	real_a	real_bottomleft_same_a	1	621	23	mask.bmp	blankscreen.bmp	wmd4.bmp	blankscreen.bmp	square.bmp										
403	real_a	real_topleft_diff_a	2	663	23	mask.bmp	blankscreen.bmp	wfn3.bmp	blankscreen.bmp	square.bmp										
403	real_a	real_topright_diff_a	3	294	18	mask.bmp	blankscreen.bmp	wmn1.bmp	blankscreen.bmp	circle.bmp										
403	real_a	real_bottomleft_diff_a	4	381	18	mask.bmp	blankscreen.bmp	wmn2.bmp	blankscreen.bmp	circle.bmp										
403	real_a	real_topleft_same_a	5	463	23	mask.bmp	blankscreen.bmp	wfn4.bmp	blankscreen.bmp	square.bmp										
403	real_a	real_topright_diff_a	6	471	18	mask.bmp	blankscreen.bmp	wfd2.bmp	blankscreen.bmp	circle.bmp										
403	real_a	real_topright_same_a	7	471	18	mask.bmp	blankscreen.bmp	wfd5.bmp	blankscreen.bmp	circle.bmp										
403	real_a	real_bottomright_diff_a	8	470	18	mask.bmp	blankscreen.bmp	wmd1.bmp	blankscreen.bmp	circle.bmp										
403	real_a	real_topleft_diff_a	9	342	23	mask.bmp	blankscreen.bmp	wfd1.bmp	blankscreen.bmp	square.bmp										
403	real_a	real_bottomleft_diff_a	10	346	18	mask.bmp	blankscreen.bmp	wfd3.bmp	blankscreen.bmp	circle.bmp										
403	real_a	real_bottomright_diff_a	11	471	23	mask.bmp	blankscreen.bmp	wmn3.bmp	blankscreen.bmp	square.bmp										
403	real_a	real_bottomright_diff_a	12	350	18	mask.bmp	blankscreen.bmp	wfn2.bmp	blankscreen.bmp	circle.bmp										
403	real_a	real_bottomleft_diff_a	13	419	18	mask.bmp	blankscreen.bmp	wfn1.bmp	blankscreen.bmp	circle.bmp										
403	real_a	real_topleft_diff_a	14	356	23	mask.bmp	blankscreen.bmp	wmd2.bmp	blankscreen.bmp	square.bmp										
403	real_a	real_topright_same_a	15	377	23	mask.bmp	blankscreen.bmp	wmn4.bmp	blankscreen.bmp	circle.bmp										
403	real_a	real_bottomright_same_a	16	604	18	mask.bmp	blankscreen.bmp	wmn5.bmp	blankscreen.bmp	circle.bmp										
403	real_a	real_topleft_same_a	17	582	18	mask.bmp	blankscreen.bmp	wfd4.bmp	blankscreen.bmp	circle.bmp										
403	real_a	real_bottomleft_same_a	18	520	18	mask.bmp	blankscreen.bmp	wfn5.bmp	blankscreen.bmp	circle.bmp										
403	real_a	real_bottomright_same_a	19	438	23	mask.bmp	blankscreen.bmp	wmd5.bmp	blankscreen.bmp	square.bmp										
403	real_a	real_topright_diff_a	20	422	18	mask.bmp	blankscreen.bmp	wmd3.bmp	blankscreen.bmp	circle.bmp										
403	real_b	real_topleft_diff_b	1	518	18	mask.bmp	blankscreen.bmp	wmn6.bmp	blankscreen.bmp	circle.bmp										
403	real_b	real_bottomleft_same_b	2	530	18	mask.bmp	blankscreen.bmp	wfd9.bmp	blankscreen.bmp	circle.bmp										
403	real_b	real_topleft_diff_b	3	447	18	mask.bmp	blankscreen.bmp	wmd8.bmp	blankscreen.bmp	circle.bmp										
403	real_b	real_topright_diff_b	4	455	18	mask.bmp	blankscreen.bmp	wmn7.bmp	blankscreen.bmp	circle.bmp										
403	real_b	real_bottomleft_diff_b	5	615	18	mask.bmp	blankscreen.bmp	wmn8.bmp	blankscreen.bmp	circle.bmp										
403	real_b	real_topright_diff_b	6	441	18	mask.bmp	blankscreen.bmp	wfn6.bmp	blankscreen.bmp	circle.bmp										
403	real_b	real_topright_diff_b	7	337	23	mask.bmp	blankscreen.bmp	wfd8.bmp	blankscreen.bmp	square.bmp										
403	real_b	real_topright_same_b	8	542	23	mask.bmp	blankscreen.bmp	wfn9.bmp	blankscreen.bmp	square.bmp										
403	real_b	real_topleft_same_b	9	515	18	mask.bmp	blankscreen.bmp	wmn9.bmp	blankscreen.bmp	circle.bmp										
403	real_b	real_bottomright_diff_b	10	376	23	mask.bmp	blankscreen.bmp	wmd7.bmp	blankscreen.bmp	square.bmp										
403	real_b	real_topleft_same_b	11	675	23	mask.bmp	blankscreen.bmp	wmd9.bmp	blankscreen.bmp	square.bmp										
403	real_b	real_bottomleft_diff_b	12	435	23	mask.bmp	blankscreen.bmp	wmd6.bmp	blankscreen.bmp	square.bmp										
403	real_b	real_bottomleft_diff_b	13	531	18	mask.bmp	blankscreen.bmp	wfn7.bmp	blankscreen.bmp	circle.bmp										
403	real_b	real_bottomright_same_b	14	464	18	mask.bmp	blankscreen.bmp	wfn10.bmp	blankscreen.bmp	circle.bmp										
403	real_b	real_topright_same_b	15	648	18	mask.bmp	blankscreen.bmp	wmn10.bmp	blankscreen.bmp	circle.bmp										
403	real_b	real_bottomright_diff_b	16	536	18	mask.bmp	blankscreen.bmp	wfn8.bmp	blankscreen.bmp	circle.bmp										
403	real_b	real_bottomleft_same_b	17	541	23	mask.bmp	blankscreen.bmp	wmd10.bmp	blankscreen.bmp	square.bmp										
403	real_b	real_bottomright_same_b	18	881	18	mask.bmp	blankscreen.bmp	wfd10.bmp	blankscreen.bmp	square.bmp										
403	real_b	real_topleft_diff_b	19	584	18	mask.bmp	blankscreen.bmp	wfd7.bmp	blankscreen.bmp	circle.bmp										
403	real_b	real_bottomright_diff_b	20	331	23	mask.bmp	blankscreen.bmp	wfd6.bmp	blankscreen.bmp	square.bmp										
403	real_c	real_bottomright_diff_c	1	408	23	mask.bmp	blankscreen.bmp	wmd3.bmp	blankscreen.bmp	square.bmp										
403	real_c	real_topleft_diff_c	2	345	18	mask.bmp	blankscreen.bmp	wfn4.bmp	blankscreen.bmp	circle.bmp										
403	real_c	real_topright_same_c	3	406	23	mask.bmp	blankscreen.bmp	wmd1.bmp	blankscreen.bmp	square.bmp										
403	real_c	real_bottomright_diff_c	4	448	18	mask.bmp	blankscreen.bmp	wmn4.bmp	blankscreen.bmp	circle.bmp										
403	real_c	real_bottomleft_same_c	5	352	23	mask.bmp	blankscreen.bmp	wmn1.bmp	blankscreen.bmp	square.bmp										
403	real_c	real_topleft_same_c	6	508	23	mask.bmp	blankscreen.bmp	wfn1.bmp	blankscreen.bmp	square.bmp										
403	real_c	real_topleft_same_c	7	538	23	mask.bmp	blankscreen.bmp	wfd1.bmp	blankscreen.bmp	square.bmp										
403	real_c	real_bottomleft_diff_c	8	383	18	mask.bmp	blankscreen.bmp	wfd4.bmp	blankscreen.bmp	circle.bmp										
403	real_c	real_topright_diff_c	9	826	18	mask.bmp	blankscreen.bmp	wmn3.bmp	blankscreen.bmp	circle.bmp										
403	real_c	real_bottomleft_diff_c	10	738	23	mask.bmp	blankscreen.bmp	wmd5.bmp	blankscreen.bmp	square.bmp										
403	real_c	real_topright_diff_c	11	591	23	mask.bmp	blankscreen.bmp	wmd4.bmp	blankscreen.bmp	square.bmp										
403	real_c	real_topleft_diff_c	12	490	23	mask.bmp	blankscreen.bmp	wmn5.bmp	blankscreen.bmp	square.bmp										
403	real_c	real_topright_diff_c	13	456	23	mask.bmp	blankscreen.bmp	wfn5.bmp	blankscreen.bmp	square.bmp										
403	real_c	real_topright_same_c	14	464	23	mask.bmp	blankscreen.bmp	wfn2.bmp	blankscreen.bmp	square.bmp										
403	real_c	real_bottomright_same_c	15	680	18	mask.bmp	blankscreen.bmp	wmd2.bmp	blankscreen.bmp	circle.bmp										
403	real_c	real_topleft_diff_c	16	367	18	mask.bmp	blankscreen.bmp	wfd3.bmp	blankscreen.bmp	circle.bmp										
403	real_c	real_bottomright_diff_c	17	410	23	mask.bmp	blankscreen.bmp	wfd5.bmp	blankscreen.bmp	square.bmp										
403	real_c	real_bottomright_same_c	18	396	18	mask.bmp	blankscreen.bmp	wmn2.bmp	blankscreen.bmp	circle.bmp										
403	real_c	real_bottomleft_same_c	19	559	18	mask.bmp	blankscreen.bmp	wfd2.bmp	blankscreen.bmp	circle.bmp										
403	real_c	real_bottomleft_diff_c	20	475	18	mask.bmp	blankscreen.bmp	wfn3.bmp	blankscreen.bmp	circle.bmp										
403	real_d	real_bottomleft_same_d	1	378	18	mask.bmp	blankscreen.bmp	wfn6.bmp	blankscreen.bmp	circle.bmp										
403	real_d	real_topleft_same_d	2	429	18	mask.bmp	blankscreen.bmp	wmn6.bmp	blankscreen.bmp	circle.bmp										
403	real_d	real_topright_diff_d	3	358	23	mask.bmp	blankscreen.bmp	wfn8.bmp	blankscreen.bmp	square.bmp										
403	real_d	real_topleft_diff_d	4	554	18	mask.bmp	blankscreen.bmp	wmn8.bmp	blankscreen.bmp	circle.bmp										
403	real_d	real_bottomright_diff_d	5	478	18	mask.bmp	blankscreen.bmp	wfd8.bmp	blankscreen.bmp	circle.bmp										
403	real_d	real_bottomright_same_d	6	509	23	mask.bmp	blankscreen.bmp	wfd7.bmp	blankscreen.bmp	square.bmp										
403	real_d	real_topright_same_d	7	643	23	mask.bmp	blankscreen.bmp	wmd7.bmp	blankscreen.bmp	square.bmp										
403	real_d	real_topleft_diff_d	8	532	18	mask.bmp	blankscreen.bmp	wmd9.bmp	blankscreen.bmp	circle.bmp										
403	real_d	real_topright_diff_d	9	513	18	mask.bmp	blankscreen.bmp	wfd9.bmp	blankscreen.bmp	circle.bmp										
403	real_d	real_topright_same_d	10	431	18	mask.bmp	blankscreen.bmp	wfd6.bmp	blankscreen.bmp	circle.bmp										
403	real_d	real_bottomleft_diff_d	11	327	23	mask.bmp	blankscreen.bmp	wmd8.bmp	blankscreen.bmp	square.bmp										
403	real_d	real_topleft_same_d	12	549	18	mask.bmp	blankscreen.bmp	wmd6.bmp	blankscreen.bmp	circle.bmp										
403	real_d	real_bottomright_diff_d	13	321	23	mask.bmp	blankscreen.bmp	wmn10.bmp	blankscreen.bmp	square.bmp										
403	real_d	real_bottomleft_diff_d	14	350	18	mask.bmp	blankscreen.bmp	wfd10.bmp	blankscreen.bmp	circle.bmp										
403	real_d	real_bottomright_diff_d	15	370	23	mask.bmp	blankscreen.bmp	wfn9.bmp	blankscreen.bmp	square.bmp										
403	real_d	real_bottomleft_same_d	16	621	23	mask.bmp	blankscreen.bmp	wmn7.bmp	blankscreen.bmp	square.bmp										
403	real_d	real_bottomleft_diff_d	17	463	18	mask.bmp	blankscreen.bmp	wmn9.bmp	blankscreen.bmp	circle.bmp										
403	real_d	real_bottomright_same_d	18	742	18	mask.bmp	blankscreen.bmp	wfn7.bmp	blankscreen.bmp	circle.bmp										
403	real_d	real_topright_diff_d	19	539	18	mask.bmp	blankscreen.bmp	wmd10.bmp	blankscreen.bmp	circle.bmp										
403	real_d	real_topleft_diff_d	20	383	23	mask.bmp	blankscreen.bmp	wfn10.bmp	blankscreen.bmp	square.bmp										
404	practice	practice_topleft_same	1	615	18	mask.bmp	blankscreen.bmp	practice2.jpg	blankscreen.bmp	circle.bmp										
404	practice	practice_topright_diff	2	624	23	mask.bmp	blankscreen.bmp	practice10.jpg	blankscreen.bmp	square.bmp										
404	practice	practice_bottomleft_same	3	584	23	mask.bmp	blankscreen.bmp	practice6.jpg	blankscreen.bmp	square.bmp										
404	practice	practice_bottomleft_diff	4	393	18	mask.bmp	blankscreen.bmp	practice11.jpg	blankscreen.bmp	circle.bmp										
404	practice	practice_topleft_diff	5	523	18	mask.bmp	blankscreen.bmp	practice9.jpg	blankscreen.bmp	circle.bmp										
404	practice	practice_topleft_same	6	447	18	mask.bmp	blankscreen.bmp	practice1.jpg	blankscreen.bmp	square.bmp										
404	practice	practice_topright_same	7	542	23	mask.bmp	blankscreen.bmp	practice4.jpg	blankscreen.bmp	square.bmp										
404	practice	practice_bottomright_diff	8	490	23	mask.bmp	blankscreen.bmp	practice12.jpg	blankscreen.bmp	square.bmp										
404	practice	practice_bottomright_same	9	487	18	mask.bmp	blankscreen.bmp	practice7.jpg	blankscreen.bmp	circle.bmp										
404	practice	practice_bottomleft_same	10	445	18	mask.bmp	blankscreen.bmp	practice5.jpg	blankscreen.bmp	circle.bmp										
404	practice	practice_topright_same	11	412	23	mask.bmp	blankscreen.bmp	practice3.jpg	blankscreen.bmp	square.bmp										
404	practice	practice_bottomright_same	12	461	18	mask.bmp	blankscreen.bmp	practice8.jpg	blankscreen.bmp	circle.bmp										
404	real_a	real_bottomright_diff_a	1	719	18	mask.bmp	blankscreen.bmp	wmn3.bmp	blankscreen.bmp	circle.bmp										
404	real_a	real_topright_diff_a	2	429	23	mask.bmp	blankscreen.bmp	wmn1.bmp	blankscreen.bmp	square.bmp										
404	real_a	real_bottomleft_diff_a	3	589	18	mask.bmp	blankscreen.bmp	wfd3.bmp	blankscreen.bmp	circle.bmp										
404	real_a	real_topright_diff_a	4	720	18	mask.bmp	blankscreen.bmp	wfd2.bmp	blankscreen.bmp	circle.bmp										
404	real_a	real_topright_diff_a	5	557	23	mask.bmp	blankscreen.bmp	wmd3.bmp	blankscreen.bmp	square.bmp										
404	real_a	real_bottomright_diff_a	6	449	23	mask.bmp	blankscreen.bmp	wmd1.bmp	blankscreen.bmp	square.bmp										
404	real_a	real_bottomright_diff_a	7	578	18	mask.bmp	blankscreen.bmp	wfn2.bmp	blankscreen.bmp	circle.bmp										
404	real_a	real_topleft_diff_a	8	541	23	mask.bmp	blankscreen.bmp	wfn3.bmp	blankscreen.bmp	square.bmp										
404	real_a	real_bottomleft_same_a	9	722	23	mask.bmp	blankscreen.bmp	wmd4.bmp	blankscreen.bmp	square.bmp										
404	real_a	real_topright_same_a	10	735	18	mask.bmp	blankscreen.bmp	wmn4.bmp	blankscreen.bmp	circle.bmp										
404	real_a	real_bottomright_same_a	11	484	18	mask.bmp	blankscreen.bmp	wmd5.bmp	blankscreen.bmp	circle.bmp										
404	real_a	real_bottomleft_same_a	12	363	23	mask.bmp	blankscreen.bmp	wfn5.bmp	blankscreen.bmp	square.bmp										
404	real_a	real_bottomleft_diff_a	13	511	18	mask.bmp	blankscreen.bmp	wmn2.bmp	blankscreen.bmp	circle.bmp										
404	real_a	real_bottomleft_diff_a	14	629	18	mask.bmp	blankscreen.bmp	wfn1.bmp	blankscreen.bmp	circle.bmp										
404	real_a	real_bottomright_same_a	15	438	23	mask.bmp	blankscreen.bmp	wmn5.bmp	blankscreen.bmp	square.bmp										
404	real_a	real_topleft_same_a	16	463	23	mask.bmp	blankscreen.bmp	wfn4.bmp	blankscreen.bmp	square.bmp										
404	real_a	real_topright_same_a	17	511	23	mask.bmp	blankscreen.bmp	wfd5.bmp	blankscreen.bmp	square.bmp										
404	real_a	real_topleft_same_a	18	644	18	mask.bmp	blankscreen.bmp	wfd4.bmp	blankscreen.bmp	circle.bmp										
404	real_a	real_topleft_diff_a	19	589	18	mask.bmp	blankscreen.bmp	wmd2.bmp	blankscreen.bmp	circle.bmp										
404	real_a	real_topleft_diff_a	20	512	18	mask.bmp	blankscreen.bmp	wfd1.bmp	blankscreen.bmp	circle.bmp										
404	real_b	real_topright_same_b	1	442	23	mask.bmp	blankscreen.bmp	wmn10.bmp	blankscreen.bmp	square.bmp										
404	real_b	real_bottomleft_same_b	2	562	23	mask.bmp	blankscreen.bmp	wfd9.bmp	blankscreen.bmp	square.bmp										
404	real_b	real_bottomleft_diff_b	3	557	23	mask.bmp	blankscreen.bmp	wmn8.bmp	blankscreen.bmp	square.bmp										
404	real_b	real_bottomleft_diff_b	4	609	23	mask.bmp	blankscreen.bmp	wmd6.bmp	blankscreen.bmp	square.bmp										
404	real_b	real_topleft_same_b	5	499	18	mask.bmp	blankscreen.bmp	wmd9.bmp	blankscreen.bmp	circle.bmp										
404	real_b	real_topright_diff_b	6	753	23	mask.bmp	blankscreen.bmp	wfd8.bmp	blankscreen.bmp	square.bmp										
404	real_b	real_bottomright_same_b	7	477	23	mask.bmp	blankscreen.bmp	wfn10.bmp	blankscreen.bmp	square.bmp										
404	real_b	real_bottomright_diff_b	8	453	23	mask.bmp	blankscreen.bmp	wfn8.bmp	blankscreen.bmp	square.bmp										
404	real_b	real_bottomleft_diff_b	9	581	23	mask.bmp	blankscreen.bmp	wfn7.bmp	blankscreen.bmp	square.bmp										
404	real_b	real_topleft_same_b	10	472	23	mask.bmp	blankscreen.bmp	wmn9.bmp	blankscreen.bmp	square.bmp										
404	real_b	real_topright_diff_b	11	551	23	mask.bmp	blankscreen.bmp	wmn7.bmp	blankscreen.bmp	square.bmp										
404	real_b	real_topleft_diff_b	12	523	23	mask.bmp	blankscreen.bmp	wmd8.bmp	blankscreen.bmp	square.bmp										
404	real_b	real_bottomright_same_b	13	521	18	mask.bmp	blankscreen.bmp	wfd10.bmp	blankscreen.bmp	circle.bmp										
404	real_b	real_topright_same_b	14	622	18	mask.bmp	blankscreen.bmp	wfn9.bmp	blankscreen.bmp	circle.bmp										
404	real_b	real_topleft_diff_b	15	487	23	mask.bmp	blankscreen.bmp	wmn6.bmp	blankscreen.bmp	square.bmp										
404	real_b	real_bottomright_diff_b	16	606	23	mask.bmp	blankscreen.bmp	wmd7.bmp	blankscreen.bmp	square.bmp										
404	real_b	real_bottomright_diff_b	17	616	18	mask.bmp	blankscreen.bmp	wfd6.bmp	blankscreen.bmp	circle.bmp										
404	real_b	real_topright_diff_b	18	473	23	mask.bmp	blankscreen.bmp	wfn6.bmp	blankscreen.bmp	square.bmp										
404	real_b	real_topleft_diff_b	19	433	18	mask.bmp	blankscreen.bmp	wfd7.bmp	blankscreen.bmp	circle.bmp										
404	real_b	real_bottomleft_same_b	20	665	23	mask.bmp	blankscreen.bmp	wmd10.bmp	blankscreen.bmp	square.bmp										
404	real_c	real_bottomright_diff_c	1	559	18	mask.bmp	blankscreen.bmp	wmd3.bmp	blankscreen.bmp	circle.bmp										
404	real_c	real_bottomleft_same_c	2	523	23	mask.bmp	blankscreen.bmp	wfd2.bmp	blankscreen.bmp	square.bmp										
404	real_c	real_topleft_diff_c	3	504	23	mask.bmp	blankscreen.bmp	wfn4.bmp	blankscreen.bmp	square.bmp										
404	real_c	real_topleft_same_c	4	494	18	mask.bmp	blankscreen.bmp	wfd1.bmp	blankscreen.bmp	circle.bmp										
404	real_c	real_bottomright_diff_c	5	525	18	mask.bmp	blankscreen.bmp	wfd5.bmp	blankscreen.bmp	circle.bmp										
404	real_c	real_topleft_same_c	6	514	23	mask.bmp	blankscreen.bmp	wfn1.bmp	blankscreen.bmp	square.bmp										
404	real_c	real_bottomleft_diff_c	7	512	18	mask.bmp	blankscreen.bmp	wfn3.bmp	blankscreen.bmp	circle.bmp										
404	real_c	real_topright_diff_c	8	534	23	mask.bmp	blankscreen.bmp	wmn3.bmp	blankscreen.bmp	square.bmp										
404	real_c	real_topright_same_c	9	667	23	mask.bmp	blankscreen.bmp	wmd1.bmp	blankscreen.bmp	square.bmp										
404	real_c	real_bottomleft_same_c	10	491	23	mask.bmp	blankscreen.bmp	wmn1.bmp	blankscreen.bmp	square.bmp										
404	real_c	real_topleft_diff_c	11	498	18	mask.bmp	blankscreen.bmp	wmn5.bmp	blankscreen.bmp	circle.bmp										
404	real_c	real_bottomleft_diff_c	12	520	23	mask.bmp	blankscreen.bmp	wmd5.bmp	blankscreen.bmp	square.bmp										
404	real_c	real_topright_same_c	13	413	18	mask.bmp	blankscreen.bmp	wfn2.bmp	blankscreen.bmp	circle.bmp										
404	real_c	real_bottomleft_diff_c	14	438	18	mask.bmp	blankscreen.bmp	wfd4.bmp	blankscreen.bmp	circle.bmp										
404	real_c	real_topright_diff_c	15	527	18	mask.bmp	blankscreen.bmp	wfn5.bmp	blankscreen.bmp	circle.bmp										
404	real_c	real_topright_diff_c	16	460	23	mask.bmp	blankscreen.bmp	wmd4.bmp	blankscreen.bmp	square.bmp										
404	real_c	real_topleft_diff_c	17	764	18	mask.bmp	blankscreen.bmp	wfd3.bmp	blankscreen.bmp	circle.bmp										
404	real_c	real_bottomright_same_c	18	432	18	mask.bmp	blankscreen.bmp	wmn2.bmp	blankscreen.bmp	circle.bmp										
404	real_c	real_bottomright_diff_c	19	353	23	mask.bmp	blankscreen.bmp	wmn4.bmp	blankscreen.bmp	square.bmp										
404	real_c	real_bottomright_same_c	20	501	23	mask.bmp	blankscreen.bmp	wmd2.bmp	blankscreen.bmp	square.bmp										
404	real_d	real_bottomright_diff_d	1	529	23	mask.bmp	blankscreen.bmp	wfn9.bmp	blankscreen.bmp	square.bmp										
404	real_d	real_bottomleft_diff_d	2	446	18	mask.bmp	blankscreen.bmp	wmn9.bmp	blankscreen.bmp	circle.bmp										
404	real_d	real_bottomright_diff_d	3	463	23	mask.bmp	blankscreen.bmp	wmn10.bmp	blankscreen.bmp	circle.bmp										
404	real_d	real_bottomright_same_d	4	486	18	mask.bmp	blankscreen.bmp	wfn7.bmp	blankscreen.bmp	circle.bmp										
404	real_d	real_topright_same_d	5	469	23	mask.bmp	blankscreen.bmp	wmd7.bmp	blankscreen.bmp	square.bmp										
404	real_d	real_bottomright_diff_d	6	476	23	mask.bmp	blankscreen.bmp	wfd8.bmp	blankscreen.bmp	square.bmp										
404	real_d	real_topright_diff_d	7	540	18	mask.bmp	blankscreen.bmp	wfn8.bmp	blankscreen.bmp	circle.bmp										
404	real_d	real_bottomleft_same_d	8	537	18	mask.bmp	blankscreen.bmp	wfn6.bmp	blankscreen.bmp	circle.bmp										
404	real_d	real_topleft_same_d	9	421	23	mask.bmp	blankscreen.bmp	wmd6.bmp	blankscreen.bmp	square.bmp										
404	real_d	real_topright_diff_d	10	519	18	mask.bmp	blankscreen.bmp	wmd10.bmp	blankscreen.bmp	circle.bmp										
404	real_d	real_topleft_diff_d	11	676	23	mask.bmp	blankscreen.bmp	wmn8.bmp	blankscreen.bmp	square.bmp										
404	real_d	real_topleft_diff_d	12	491	23	mask.bmp	blankscreen.bmp	wfn10.bmp	blankscreen.bmp	square.bmp										
404	real_d	real_bottomright_same_d	13	562	23	mask.bmp	blankscreen.bmp	wfd7.bmp	blankscreen.bmp	square.bmp										
404	real_d	real_topleft_same_d	14	398	23	mask.bmp	blankscreen.bmp	wmn6.bmp	blankscreen.bmp	square.bmp										
404	real_d	real_topright_same_d	15	520	18	mask.bmp	blankscreen.bmp	wfd6.bmp	blankscreen.bmp	circle.bmp										
404	real_d	real_topright_diff_d	16	621	23	mask.bmp	blankscreen.bmp	wfd9.bmp	blankscreen.bmp	square.bmp										
404	real_d	real_bottomleft_diff_d	17	774	18	mask.bmp	blankscreen.bmp	wmd8.bmp	blankscreen.bmp	circle.bmp										
404	real_d	real_bottomleft_diff_d	18	609	18	mask.bmp	blankscreen.bmp	wfd10.bmp	blankscreen.bmp	circle.bmp										
404	real_d	real_bottomleft_same_d	19	547	18	mask.bmp	blankscreen.bmp	wmn7.bmp	blankscreen.bmp	circle.bmp										
404	real_d	real_topleft_diff_d	20	511	18	mask.bmp	blankscreen.bmp	wmd9.bmp	blankscreen.bmp	circle.bmp										
406	practice	practice_topright_same	1	3036	23	mask.bmp	blankscreen.bmp	practice4.jpg	blankscreen.bmp	square.bmp										
406	practice	practice_bottomleft_same	2	3147	18	mask.bmp	blankscreen.bmp	practice5.jpg	blankscreen.bmp	circle.bmp										
406	practice	practice_bottomright_same	3	687	23	mask.bmp	blankscreen.bmp	practice8.jpg	blankscreen.bmp	square.bmp										
406	practice	practice_bottomleft_diff	4	916	18	mask.bmp	blankscreen.bmp	practice11.jpg	blankscreen.bmp	circle.bmp										
406	practice	practice_topleft_diff	5	1025	18	mask.bmp	blankscreen.bmp	practice9.jpg	blankscreen.bmp	circle.bmp										
406	practice	practice_bottomright_same	6	537	23	mask.bmp	blankscreen.bmp	practice7.jpg	blankscreen.bmp	square.bmp										
406	practice	practice_topright_diff	7	820	23	mask.bmp	blankscreen.bmp	practice10.jpg	blankscreen.bmp	square.bmp										
406	practice	practice_topleft_same	8	564	18	mask.bmp	blankscreen.bmp	practice1.jpg	blankscreen.bmp	circle.bmp										
406	practice	practice_topleft_same	9	423	18	mask.bmp	blankscreen.bmp	practice2.jpg	blankscreen.bmp	circle.bmp										
406	practice	practice_topright_same	10	543	18	mask.bmp	blankscreen.bmp	practice3.jpg	blankscreen.bmp	circle.bmp										
406	practice	practice_bottomright_diff	11	682	18	mask.bmp	blankscreen.bmp	practice12.jpg	blankscreen.bmp	circle.bmp										
406	practice	practice_bottomleft_same	12	400	18	mask.bmp	blankscreen.bmp	practice6.jpg	blankscreen.bmp	square.bmp										
406	real_a	real_topright_diff_a	1	676	18	mask.bmp	blankscreen.bmp	wmn1.bmp	blankscreen.bmp	circle.bmp										
406	real_a	real_bottomleft_diff_a	2	740	18	mask.bmp	blankscreen.bmp	wmn2.bmp	blankscreen.bmp	circle.bmp										
406	real_a	real_topleft_same_a	3	528	18	mask.bmp	blankscreen.bmp	wfn4.bmp	blankscreen.bmp	circle.bmp										
406	real_a	real_bottomright_same_a	4	356	18	mask.bmp	blankscreen.bmp	wmn5.bmp	blankscreen.bmp	circle.bmp										
406	real_a	real_bottomleft_same_a	5	408	23	mask.bmp	blankscreen.bmp	wmd4.bmp	blankscreen.bmp	square.bmp										
406	real_a	real_topleft_diff_a	6	650	18	mask.bmp	blankscreen.bmp	wfn3.bmp	blankscreen.bmp	circle.bmp										
406	real_a	real_bottomright_diff_a	7	714	18	mask.bmp	blankscreen.bmp	wmd1.bmp	blankscreen.bmp	circle.bmp										
406	real_a	real_bottomright_diff_a	8	512	23	mask.bmp	blankscreen.bmp	wfn2.bmp	blankscreen.bmp	square.bmp										
406	real_a	real_topright_diff_a	9	566	23	mask.bmp	blankscreen.bmp	wfd2.bmp	blankscreen.bmp	square.bmp										
406	real_a	real_bottomleft_diff_a	10	539	23	mask.bmp	blankscreen.bmp	wfn1.bmp	blankscreen.bmp	square.bmp										
406	real_a	real_bottomright_same_a	11	495	23	mask.bmp	blankscreen.bmp	wmd5.bmp	blankscreen.bmp	square.bmp										
406	real_a	real_topleft_same_a	12	637	18	mask.bmp	blankscreen.bmp	wfd4.bmp	blankscreen.bmp	circle.bmp										
406	real_a	real_bottomleft_same_a	13	486	18	mask.bmp	blankscreen.bmp	wfn5.bmp	blankscreen.bmp	circle.bmp										
406	real_a	real_topleft_diff_a	14	645	18	mask.bmp	blankscreen.bmp	wmd2.bmp	blankscreen.bmp	circle.bmp										
406	real_a	real_topright_diff_a	15	709	23	mask.bmp	blankscreen.bmp	wmd3.bmp	blankscreen.bmp	square.bmp										
406	real_a	real_bottomright_diff_a	16	603	18	mask.bmp	blankscreen.bmp	wmn3.bmp	blankscreen.bmp	circle.bmp										
406	real_a	real_topright_same_a	17	525	23	mask.bmp	blankscreen.bmp	wmn4.bmp	blankscreen.bmp	square.bmp										
406	real_a	real_bottomleft_diff_a	18	723	23	mask.bmp	blankscreen.bmp	wfd3.bmp	blankscreen.bmp	square.bmp										
406	real_a	real_topleft_diff_a	19	384	23	mask.bmp	blankscreen.bmp	wfd1.bmp	blankscreen.bmp	square.bmp										
406	real_a	real_topright_same_a	20	563	18	mask.bmp	blankscreen.bmp	wfd5.bmp	blankscreen.bmp	circle.bmp										
406	real_b	real_topleft_same_b	1	500	18	mask.bmp	blankscreen.bmp	wmd9.bmp	blankscreen.bmp	circle.bmp										
406	real_b	real_bottomright_diff_b	2	498	18	mask.bmp	blankscreen.bmp	wfn8.bmp	blankscreen.bmp	circle.bmp										
406	real_b	real_topright_same_b	3	520	23	mask.bmp	blankscreen.bmp	wfn9.bmp	blankscreen.bmp	square.bmp										
406	real_b	real_topleft_same_b	4	349	18	mask.bmp	blankscreen.bmp	wmn9.bmp	blankscreen.bmp	circle.bmp										
406	real_b	real_bottomleft_same_b	5	473	18	mask.bmp	blankscreen.bmp	wmd10.bmp	blankscreen.bmp	circle.bmp										
406	real_b	real_bottomleft_diff_b	6	497	18	mask.bmp	blankscreen.bmp	wmd6.bmp	blankscreen.bmp	circle.bmp										
406	real_b	real_bottomright_diff_b	7	567	23	mask.bmp	blankscreen.bmp	wmd7.bmp	blankscreen.bmp	square.bmp										
406	real_b	real_topleft_diff_b	8	507	18	mask.bmp	blankscreen.bmp	wmd8.bmp	blankscreen.bmp	circle.bmp										
406	real_b	real_bottomright_same_b	9	521	18	mask.bmp	blankscreen.bmp	wfn10.bmp	blankscreen.bmp	circle.bmp										
406	real_b	real_bottomleft_diff_b	10	518	18	mask.bmp	blankscreen.bmp	wfn7.bmp	blankscreen.bmp	circle.bmp										
406	real_b	real_bottomright_diff_b	11	636	18	mask.bmp	blankscreen.bmp	wfd6.bmp	blankscreen.bmp	circle.bmp										
406	real_b	real_bottomleft_diff_b	12	716	23	mask.bmp	blankscreen.bmp	wmn8.bmp	blankscreen.bmp	square.bmp										
406	real_b	real_topright_same_b	13	818	23	mask.bmp	blankscreen.bmp	wmn10.bmp	blankscreen.bmp	square.bmp										
406	real_b	real_topright_diff_b	14	595	23	mask.bmp	blankscreen.bmp	wfn6.bmp	blankscreen.bmp	square.bmp										
406	real_b	real_topright_diff_b	15	574	23	mask.bmp	blankscreen.bmp	wmn7.bmp	blankscreen.bmp	square.bmp										
406	real_b	real_bottomleft_same_b	16	584	23	mask.bmp	blankscreen.bmp	wfd9.bmp	blankscreen.bmp	square.bmp										
406	real_b	real_bottomright_same_b	17	524	18	mask.bmp	blankscreen.bmp	wfd10.bmp	blankscreen.bmp	circle.bmp										
406	real_b	real_topright_diff_b	18	633	23	mask.bmp	blankscreen.bmp	wfd8.bmp	blankscreen.bmp	square.bmp										
406	real_b	real_topleft_diff_b	19	1058	18	mask.bmp	blankscreen.bmp	wmn6.bmp	blankscreen.bmp	circle.bmp										
406	real_b	real_topleft_diff_b	20	394	18	mask.bmp	blankscreen.bmp	wfd7.bmp	blankscreen.bmp	circle.bmp										
406	real_c	real_bottomleft_same_c	1	584	23	mask.bmp	blankscreen.bmp	wfd2.bmp	blankscreen.bmp	square.bmp										
406	real_c	real_topright_diff_c	2	490	23	mask.bmp	blankscreen.bmp	wfn5.bmp	blankscreen.bmp	square.bmp										
406	real_c	real_topleft_diff_c	3	537	23	mask.bmp	blankscreen.bmp	wmn5.bmp	blankscreen.bmp	square.bmp										
406	real_c	real_topright_diff_c	4	494	18	mask.bmp	blankscreen.bmp	wmd4.bmp	blankscreen.bmp	circle.bmp										
406	real_c	real_bottomright_same_c	5	660	23	mask.bmp	blankscreen.bmp	wmn2.bmp	blankscreen.bmp	square.bmp										
406	real_c	real_bottomright_same_c	6	444	23	mask.bmp	blankscreen.bmp	wmd2.bmp	blankscreen.bmp	square.bmp										
406	real_c	real_topleft_same_c	7	589	18	mask.bmp	blankscreen.bmp	wfn1.bmp	blankscreen.bmp	circle.bmp										
406	real_c	real_bottomleft_diff_c	8	808	23	mask.bmp	blankscreen.bmp	wmd5.bmp	blankscreen.bmp	square.bmp										
406	real_c	real_topleft_diff_c	9	817	18	mask.bmp	blankscreen.bmp	wfn4.bmp	blankscreen.bmp	circle.bmp										
406	real_c	real_topright_same_c	10	475	18	mask.bmp	blankscreen.bmp	wmd1.bmp	blankscreen.bmp	circle.bmp										
406	real_c	real_bottomleft_same_c	11	395	23	mask.bmp	blankscreen.bmp	wmn1.bmp	blankscreen.bmp	square.bmp										
406	real_c	real_topright_diff_c	12	541	18	mask.bmp	blankscreen.bmp	wmn3.bmp	blankscreen.bmp	circle.bmp										
406	real_c	real_bottomleft_diff_c	13	530	23	mask.bmp	blankscreen.bmp	wfn3.bmp	blankscreen.bmp	square.bmp										
406	real_c	real_bottomright_diff_c	14	559	18	mask.bmp	blankscreen.bmp	wfd5.bmp	blankscreen.bmp	circle.bmp										
406	real_c	real_topleft_diff_c	15	579	18	mask.bmp	blankscreen.bmp	wfd3.bmp	blankscreen.bmp	circle.bmp										
406	real_c	real_bottomright_diff_c	16	558	23	mask.bmp	blankscreen.bmp	wmn4.bmp	blankscreen.bmp	square.bmp										
406	real_c	real_bottomleft_diff_c	17	546	18	mask.bmp	blankscreen.bmp	wfd4.bmp	blankscreen.bmp	circle.bmp										
406	real_c	real_topleft_same_c	18	655	23	mask.bmp	blankscreen.bmp	wfd1.bmp	blankscreen.bmp	square.bmp										
406	real_c	real_bottomright_diff_c	19	663	18	mask.bmp	blankscreen.bmp	wmd3.bmp	blankscreen.bmp	circle.bmp										
406	real_c	real_topright_same_c	20	599	18	mask.bmp	blankscreen.bmp	wfn2.bmp	blankscreen.bmp	circle.bmp										
406	real_d	real_topright_diff_d	1	864	18	mask.bmp	blankscreen.bmp	wfn8.bmp	blankscreen.bmp	circle.bmp										
406	real_d	real_topleft_diff_d	2	583	23	mask.bmp	blankscreen.bmp	wmn8.bmp	blankscreen.bmp	square.bmp										
406	real_d	real_bottomleft_diff_d	3	610	18	mask.bmp	blankscreen.bmp	wfd10.bmp	blankscreen.bmp	circle.bmp										
406	real_d	real_bottomleft_diff_d	4	517	18	mask.bmp	blankscreen.bmp	wmn9.bmp	blankscreen.bmp	circle.bmp										
406	real_d	real_bottomright_diff_d	5	442	18	mask.bmp	blankscreen.bmp	wmn10.bmp	blankscreen.bmp	circle.bmp										
406	real_d	real_bottomright_same_d	6	562	18	mask.bmp	blankscreen.bmp	wfn7.bmp	blankscreen.bmp	circle.bmp										
406	real_d	real_topright_diff_d	7	599	23	mask.bmp	blankscreen.bmp	wmd10.bmp	blankscreen.bmp	square.bmp										
406	real_d	real_bottomright_diff_d	8	497	18	mask.bmp	blankscreen.bmp	wfn9.bmp	blankscreen.bmp	circle.bmp										
406	real_d	real_bottomleft_same_d	9	504	23	mask.bmp	blankscreen.bmp	wmn7.bmp	blankscreen.bmp	square.bmp										
406	real_d	real_bottomleft_diff_d	10	574	18	mask.bmp	blankscreen.bmp	wmd8.bmp	blankscreen.bmp	circle.bmp										
406	real_d	real_topleft_same_d	11	713	18	mask.bmp	blankscreen.bmp	wmn6.bmp	blankscreen.bmp	circle.bmp										
406	real_d	real_topright_diff_d	12	566	23	mask.bmp	blankscreen.bmp	wfd9.bmp	blankscreen.bmp	square.bmp										
406	real_d	real_bottomright_diff_d	13	570	23	mask.bmp	blankscreen.bmp	wfd8.bmp	blankscreen.bmp	square.bmp										
406	real_d	real_topleft_diff_d	14	605	18	mask.bmp	blankscreen.bmp	wmd9.bmp	blankscreen.bmp	circle.bmp										
406	real_d	real_bottomleft_same_d	15	543	18	mask.bmp	blankscreen.bmp	wfn6.bmp	blankscreen.bmp	circle.bmp										
406	real_d	real_topright_same_d	16	476	18	mask.bmp	blankscreen.bmp	wfd6.bmp	blankscreen.bmp	circle.bmp										
406	real_d	real_topleft_diff_d	17	547	23	mask.bmp	blankscreen.bmp	wfn10.bmp	blankscreen.bmp	square.bmp										
406	real_d	real_topright_same_d	18	487	23	mask.bmp	blankscreen.bmp	wmd7.bmp	blankscreen.bmp	square.bmp										
406	real_d	real_bottomright_same_d	19	414	23	mask.bmp	blankscreen.bmp	wfd7.bmp	blankscreen.bmp	square.bmp										
406	real_d	real_topleft_same_d	20	552	18	mask.bmp	blankscreen.bmp	wmd6.bmp	blankscreen.bmp	circle.bmp										
407	practice	practice_topleft_same	1	1302	18	mask.bmp	blankscreen.bmp	practice2.jpg	blankscreen.bmp	circle.bmp										
407	practice	practice_bottomleft_same	2	683	23	mask.bmp	blankscreen.bmp	practice5.jpg	blankscreen.bmp	square.bmp										
407	practice	practice_bottomright_diff	3	824	18	mask.bmp	blankscreen.bmp	practice12.jpg	blankscreen.bmp	circle.bmp										
407	practice	practice_topright_same	4	840	18	mask.bmp	blankscreen.bmp	practice3.jpg	blankscreen.bmp	circle.bmp										
407	practice	practice_topleft_diff	5	504	18	mask.bmp	blankscreen.bmp	practice9.jpg	blankscreen.bmp	square.bmp										
407	practice	practice_topright_diff	6	676	23	mask.bmp	blankscreen.bmp	practice10.jpg	blankscreen.bmp	square.bmp										
407	practice	practice_bottomright_same	7	610	18	mask.bmp	blankscreen.bmp	practice7.jpg	blankscreen.bmp	circle.bmp										
407	practice	practice_bottomleft_same	8	843	23	mask.bmp	blankscreen.bmp	practice6.jpg	blankscreen.bmp	square.bmp										
407	practice	practice_bottomleft_diff	9	970	23	mask.bmp	blankscreen.bmp	practice11.jpg	blankscreen.bmp	square.bmp										
407	practice	practice_topleft_same	10	364	18	mask.bmp	blankscreen.bmp	practice1.jpg	blankscreen.bmp	circle.bmp										
407	practice	practice_bottomright_same	11	423	23	mask.bmp	blankscreen.bmp	practice8.jpg	blankscreen.bmp	square.bmp										
407	practice	practice_topright_same	12	719	18	mask.bmp	blankscreen.bmp	practice4.jpg	blankscreen.bmp	circle.bmp										
407	real_a	real_topleft_diff_a	1	901	23	mask.bmp	blankscreen.bmp	wfn3.bmp	blankscreen.bmp	square.bmp										
407	real_a	real_topleft_diff_a	2	932	23	mask.bmp	blankscreen.bmp	wmd2.bmp	blankscreen.bmp	square.bmp										
407	real_a	real_bottomleft_diff_a	3	817	23	mask.bmp	blankscreen.bmp	wfn1.bmp	blankscreen.bmp	square.bmp										
407	real_a	real_bottomleft_diff_a	4	1003	23	mask.bmp	blankscreen.bmp	wfd3.bmp	blankscreen.bmp	square.bmp										
407	real_a	real_bottomright_same_a	5	885	23	mask.bmp	blankscreen.bmp	wmn5.bmp	blankscreen.bmp	square.bmp										
407	real_a	real_topright_diff_a	6	1059	23	mask.bmp	blankscreen.bmp	wfd2.bmp	blankscreen.bmp	square.bmp										
407	real_a	real_bottomleft_diff_a	7	827	23	mask.bmp	blankscreen.bmp	wmn2.bmp	blankscreen.bmp	square.bmp										
407	real_a	real_bottomright_same_a	8	1100	23	mask.bmp	blankscreen.bmp	wmd5.bmp	blankscreen.bmp	square.bmp										
407	real_a	real_bottomright_diff_a	9	682	23	mask.bmp	blankscreen.bmp	wfn2.bmp	blankscreen.bmp	square.bmp										
407	real_a	real_bottomleft_same_a	10	625	23	mask.bmp	blankscreen.bmp	wfn5.bmp	blankscreen.bmp	circle.bmp										
407	real_a	real_topleft_same_a	11	714	18	mask.bmp	blankscreen.bmp	wfd4.bmp	blankscreen.bmp	square.bmp										
407	real_a	real_topleft_diff_a	12	456	23	mask.bmp	blankscreen.bmp	wfd1.bmp	blankscreen.bmp	circle.bmp										
407	real_a	real_topright_diff_a	13	656	18	mask.bmp	blankscreen.bmp	wmd3.bmp	blankscreen.bmp	circle.bmp										
407	real_a	real_bottomright_diff_a	14	792	23	mask.bmp	blankscreen.bmp	wmn3.bmp	blankscreen.bmp	square.bmp										
407	real_a	real_topleft_same_a	15	978	18	mask.bmp	blankscreen.bmp	wfn4.bmp	blankscreen.bmp	circle.bmp										
407	real_a	real_bottomright_diff_a	16	485	18	mask.bmp	blankscreen.bmp	wmd1.bmp	blankscreen.bmp	circle.bmp										
407	real_a	real_bottomleft_same_a	17	676	23	mask.bmp	blankscreen.bmp	wmd4.bmp	blankscreen.bmp	square.bmp										
407	real_a	real_topright_diff_a	18	907	18	mask.bmp	blankscreen.bmp	wmn1.bmp	blankscreen.bmp	circle.bmp										
407	real_a	real_topright_same_a	19	905	23	mask.bmp	blankscreen.bmp	wmn4.bmp	blankscreen.bmp	square.bmp										
407	real_a	real_topright_same_a	20	664	18	mask.bmp	blankscreen.bmp	wfd5.bmp	blankscreen.bmp	circle.bmp										
407	real_b	real_topleft_diff_b	1	619	18	mask.bmp	blankscreen.bmp	wmd8.bmp	blankscreen.bmp	circle.bmp										
407	real_b	real_bottomleft_same_b	2	916	18	mask.bmp	blankscreen.bmp	wfd9.bmp	blankscreen.bmp	circle.bmp										
407	real_b	real_bottomleft_diff_b	3	417	18	mask.bmp	blankscreen.bmp	wmd6.bmp	blankscreen.bmp	circle.bmp										
407	real_b	real_topright_same_b	4	970	23	mask.bmp	blankscreen.bmp	wmn10.bmp	blankscreen.bmp	square.bmp										
407	real_b	real_bottomright_same_b	5	1062	23	mask.bmp	blankscreen.bmp	wfn10.bmp	blankscreen.bmp	square.bmp										
407	real_b	real_topleft_same_b	6	678	18	mask.bmp	blankscreen.bmp	wmn9.bmp	blankscreen.bmp	circle.bmp										
407	real_b	real_topleft_diff_b	7	653	18	mask.bmp	blankscreen.bmp	wfd7.bmp	blankscreen.bmp	circle.bmp										
407	real_b	real_bottomright_diff_b	8	773	23	mask.bmp	blankscreen.bmp	wfd6.bmp	blankscreen.bmp	square.bmp										
407	real_b	real_topright_diff_b	9	832	18	mask.bmp	blankscreen.bmp	wfd8.bmp	blankscreen.bmp	circle.bmp										
407	real_b	real_topright_diff_b	10	785	23	mask.bmp	blankscreen.bmp	wfn6.bmp	blankscreen.bmp	square.bmp										
407	real_b	real_topleft_diff_b	11	556	18	mask.bmp	blankscreen.bmp	wmn6.bmp	blankscreen.bmp	circle.bmp										
407	real_b	real_bottomleft_same_b	12	632	23	mask.bmp	blankscreen.bmp	wmd10.bmp	blankscreen.bmp	square.bmp										
407	real_b	real_bottomleft_diff_b	13	560	18	mask.bmp	blankscreen.bmp	wfn7.bmp	blankscreen.bmp	circle.bmp										
407	real_b	real_bottomright_diff_b	14	764	23	mask.bmp	blankscreen.bmp	wfn8.bmp	blankscreen.bmp	circle.bmp										
407	real_b	real_topright_same_b	15	1440	23	mask.bmp	blankscreen.bmp	wfn9.bmp	blankscreen.bmp	square.bmp										
407	real_b	real_topright_diff_b	16	1520	23	mask.bmp	blankscreen.bmp	wmn7.bmp	blankscreen.bmp	square.bmp										
407	real_b	real_topleft_same_b	17	878	18	mask.bmp	blankscreen.bmp	wmd9.bmp	blankscreen.bmp	circle.bmp										
407	real_b	real_bottomleft_diff_b	18	725	23	mask.bmp	blankscreen.bmp	wmn8.bmp	blankscreen.bmp	square.bmp										
407	real_b	real_bottomright_same_b	19	627	18	mask.bmp	blankscreen.bmp	wfd10.bmp	blankscreen.bmp	circle.bmp										
407	real_b	real_bottomright_diff_b	20	1628	18	mask.bmp	blankscreen.bmp	wmd7.bmp	blankscreen.bmp	circle.bmp										
407	real_c	real_bottomleft_diff_c	1	909	23	mask.bmp	blankscreen.bmp	wmd5.bmp	blankscreen.bmp	square.bmp										
407	real_c	real_bottomright_diff_c	2	691	23	mask.bmp	blankscreen.bmp	wfd5.bmp	blankscreen.bmp	square.bmp										
407	real_c	real_topright_same_c	3	1145	18	mask.bmp	blankscreen.bmp	wfn2.bmp	blankscreen.bmp	square.bmp										
407	real_c	real_topleft_diff_c	4	622	18	mask.bmp	blankscreen.bmp	wmn5.bmp	blankscreen.bmp	circle.bmp										
407	real_c	real_topleft_same_c	5	679	23	mask.bmp	blankscreen.bmp	wfd1.bmp	blankscreen.bmp	square.bmp										
407	real_c	real_bottomright_diff_c	6	702	18	mask.bmp	blankscreen.bmp	wmn4.bmp	blankscreen.bmp	circle.bmp										
407	real_c	real_bottomright_same_c	7	684	23	mask.bmp	blankscreen.bmp	wmd2.bmp	blankscreen.bmp	square.bmp										
407	real_c	real_topleft_diff_c	8	1907	18	mask.bmp	blankscreen.bmp	wfn4.bmp	blankscreen.bmp	circle.bmp										
407	real_c	real_bottomleft_same_c	9	1081	18	mask.bmp	blankscreen.bmp	wmn1.bmp	blankscreen.bmp	circle.bmp										
407	real_c	real_topleft_same_c	10	624	18	mask.bmp	blankscreen.bmp	wfn1.bmp	blankscreen.bmp	circle.bmp										
407	real_c	real_topright_same_c	11	1034	18	mask.bmp	blankscreen.bmp	wmd1.bmp	blankscreen.bmp	circle.bmp										
407	real_c	real_topright_diff_c	12	514	18	mask.bmp	blankscreen.bmp	wfn5.bmp	blankscreen.bmp	circle.bmp										
407	real_c	real_bottomright_diff_c	13	431	18	mask.bmp	blankscreen.bmp	wmd3.bmp	blankscreen.bmp	circle.bmp										
407	real_c	real_topleft_diff_c	14	608	18	mask.bmp	blankscreen.bmp	wfd3.bmp	blankscreen.bmp	circle.bmp										
407	real_c	real_bottomleft_diff_c	15	714	23	mask.bmp	blankscreen.bmp	wfd4.bmp	blankscreen.bmp	square.bmp										
407	real_c	real_topright_diff_c	16	872	18	mask.bmp	blankscreen.bmp	wmn3.bmp	blankscreen.bmp	circle.bmp										
407	real_c	real_bottomleft_same_c	17	1024	18	mask.bmp	blankscreen.bmp	wfd2.bmp	blankscreen.bmp	circle.bmp										
407	real_c	real_bottomleft_diff_c	18	1089	23	mask.bmp	blankscreen.bmp	wfn3.bmp	blankscreen.bmp	square.bmp										
407	real_c	real_bottomright_same_c	19	504	18	mask.bmp	blankscreen.bmp	wmn2.bmp	blankscreen.bmp	circle.bmp										
407	real_c	real_topright_diff_c	20	774	23	mask.bmp	blankscreen.bmp	wmd4.bmp	blankscreen.bmp	square.bmp										
407	real_d	real_bottomright_same_d	1	450	23	mask.bmp	blankscreen.bmp	wfd7.bmp	blankscreen.bmp	square.bmp										
407	real_d	real_topright_diff_d	2	546	18	mask.bmp	blankscreen.bmp	wfd9.bmp	blankscreen.bmp	circle.bmp										
407	real_d	real_bottomleft_same_d	3	670	23	mask.bmp	blankscreen.bmp	wfn6.bmp	blankscreen.bmp	square.bmp										
407	real_d	real_bottomleft_diff_d	4	454	23	mask.bmp	blankscreen.bmp	wfd10.bmp	blankscreen.bmp	square.bmp										
407	real_d	real_topleft_diff_d	5	582	18	mask.bmp	blankscreen.bmp	wmd9.bmp	blankscreen.bmp	circle.bmp										
407	real_d	real_bottomright_same_d	6	1224	18	mask.bmp	blankscreen.bmp	wfn7.bmp	blankscreen.bmp	circle.bmp										
407	real_d	real_bottomright_diff_d	7	490	23	mask.bmp	blankscreen.bmp	wmn10.bmp	blankscreen.bmp	square.bmp										
407	real_d	real_topleft_same_d	8	368	23	mask.bmp	blankscreen.bmp	wmn6.bmp	blankscreen.bmp	square.bmp										
407	real_d	real_topleft_diff_d	9	348	18	mask.bmp	blankscreen.bmp	wfn10.bmp	blankscreen.bmp	circle.bmp										
407	real_d	real_topright_same_d	10	424	23	mask.bmp	blankscreen.bmp	wmd7.bmp	blankscreen.bmp	square.bmp										
407	real_d	real_bottomleft_diff_d	11	489	18	mask.bmp	blankscreen.bmp	wmd8.bmp	blankscreen.bmp	circle.bmp										
407	real_d	real_topright_same_d	12	440	23	mask.bmp	blankscreen.bmp	wfd6.bmp	blankscreen.bmp	square.bmp										
407	real_d	real_topright_diff_d	13	432	23	mask.bmp	blankscreen.bmp	wmd10.bmp	blankscreen.bmp	square.bmp										
407	real_d	real_bottomright_diff_d	14	513	18	mask.bmp	blankscreen.bmp	wfd8.bmp	blankscreen.bmp	circle.bmp										
407	real_d	real_bottomleft_diff_d	15	687	23	mask.bmp	blankscreen.bmp	wmn9.bmp	blankscreen.bmp	square.bmp										
407	real_d	real_topleft_same_d	16	678	18	mask.bmp	blankscreen.bmp	wmd6.bmp	blankscreen.bmp	circle.bmp										
407	real_d	real_topleft_diff_d	17	525	23	mask.bmp	blankscreen.bmp	wmn8.bmp	blankscreen.bmp	square.bmp										
407	real_d	real_topright_diff_d	18	667	23	mask.bmp	blankscreen.bmp	wfn8.bmp	blankscreen.bmp	square.bmp										
407	real_d	real_bottomright_diff_d	19	490	23	mask.bmp	blankscreen.bmp	wfn9.bmp	blankscreen.bmp	square.bmp										
407	real_d	real_bottomleft_same_d	20	609	18	mask.bmp	blankscreen.bmp	wmn7.bmp	blankscreen.bmp	circle.bmp										
408	practice	practice_bottomright_same	1	495	18	mask.bmp	blankscreen.bmp	practice7.jpg	blankscreen.bmp	circle.bmp										
408	practice	practice_bottomleft_same	2	421	23	mask.bmp	blankscreen.bmp	practice6.jpg	blankscreen.bmp	circle.bmp										
408	practice	practice_bottomright_diff	3	669	18	mask.bmp	blankscreen.bmp	practice12.jpg	blankscreen.bmp	circle.bmp										
408	practice	practice_topright_diff	4	707	23	mask.bmp	blankscreen.bmp	practice10.jpg	blankscreen.bmp	square.bmp										
408	practice	practice_topright_same	5	368	18	mask.bmp	blankscreen.bmp	practice4.jpg	blankscreen.bmp	circle.bmp										
408	practice	practice_topright_same	6	346	23	mask.bmp	blankscreen.bmp	practice3.jpg	blankscreen.bmp	square.bmp										
408	practice	practice_topleft_same	7	765	23	mask.bmp	blankscreen.bmp	practice1.jpg	blankscreen.bmp	square.bmp										
408	practice	practice_topleft_same	8	400	18	mask.bmp	blankscreen.bmp	practice2.jpg	blankscreen.bmp	circle.bmp										
408	practice	practice_topleft_diff	9	569	23	mask.bmp	blankscreen.bmp	practice9.jpg	blankscreen.bmp	square.bmp										
408	practice	practice_bottomleft_same	10	523	23	mask.bmp	blankscreen.bmp	practice5.jpg	blankscreen.bmp	square.bmp										
408	practice	practice_bottomright_same	11	351	23	mask.bmp	blankscreen.bmp	practice8.jpg	blankscreen.bmp	square.bmp										
408	practice	practice_bottomleft_diff	12	506	18	mask.bmp	blankscreen.bmp	practice11.jpg	blankscreen.bmp	circle.bmp										
408	real_a	real_bottomright_same_a	1	930	18	mask.bmp	blankscreen.bmp	wmd5.bmp	blankscreen.bmp	circle.bmp										
408	real_a	real_topright_same_a	2	670	23	mask.bmp	blankscreen.bmp	wmn4.bmp	blankscreen.bmp	square.bmp										
408	real_a	real_topleft_same_a	3	2710	18	mask.bmp	blankscreen.bmp	wfn4.bmp	blankscreen.bmp	circle.bmp										
408	real_a	real_bottomright_same_a	4	780	18	mask.bmp	blankscreen.bmp	wmn5.bmp	blankscreen.bmp	circle.bmp										
408	real_a	real_topleft_diff_a	5	751	23	mask.bmp	blankscreen.bmp	wmd2.bmp	blankscreen.bmp	square.bmp										
408	real_a	real_bottomleft_same_a	6	555	18	mask.bmp	blankscreen.bmp	wfn5.bmp	blankscreen.bmp	circle.bmp										
408	real_a	real_bottomright_diff_a	7	871	23	mask.bmp	blankscreen.bmp	wmd1.bmp	blankscreen.bmp	square.bmp										
408	real_a	real_bottomleft_diff_a	8	758	23	mask.bmp	blankscreen.bmp	wfn1.bmp	blankscreen.bmp	square.bmp										
408	real_a	real_bottomleft_diff_a	9	426	23	mask.bmp	blankscreen.bmp	wfd3.bmp	blankscreen.bmp	circle.bmp										
408	real_a	real_topleft_same_a	10	859	23	mask.bmp	blankscreen.bmp	wfd4.bmp	blankscreen.bmp	square.bmp										
408	real_a	real_topright_diff_a	11	690	18	mask.bmp	blankscreen.bmp	wmd3.bmp	blankscreen.bmp	circle.bmp										
408	real_a	real_bottomleft_same_a	12	913	18	mask.bmp	blankscreen.bmp	wmd4.bmp	blankscreen.bmp	circle.bmp										
408	real_a	real_topleft_diff_a	13	1231	18	mask.bmp	blankscreen.bmp	wfd1.bmp	blankscreen.bmp	circle.bmp										
408	real_a	real_topright_diff_a	14	896	18	mask.bmp	blankscreen.bmp	wmn1.bmp	blankscreen.bmp	circle.bmp										
408	real_a	real_bottomright_diff_a	15	726	23	mask.bmp	blankscreen.bmp	wfn2.bmp	blankscreen.bmp	square.bmp										
408	real_a	real_topright_diff_a	16	900	18	mask.bmp	blankscreen.bmp	wfd2.bmp	blankscreen.bmp	circle.bmp										
408	real_a	real_topright_same_a	17	922	23	mask.bmp	blankscreen.bmp	wfd5.bmp	blankscreen.bmp	square.bmp										
408	real_a	real_bottomright_diff_a	18	687	23	mask.bmp	blankscreen.bmp	wmn3.bmp	blankscreen.bmp	square.bmp										
408	real_a	real_bottomleft_diff_a	19	630	23	mask.bmp	blankscreen.bmp	wmn2.bmp	blankscreen.bmp	square.bmp										
408	real_a	real_topleft_diff_a	20	503	18	mask.bmp	blankscreen.bmp	wfn3.bmp	blankscreen.bmp	circle.bmp										
408	real_b	real_topleft_diff_b	1	573	18	mask.bmp	blankscreen.bmp	wmd8.bmp	blankscreen.bmp	circle.bmp										
408	real_b	real_topright_diff_b	2	504	23	mask.bmp	blankscreen.bmp	wmn7.bmp	blankscreen.bmp	square.bmp										
408	real_b	real_bottomright_same_b	3	550	23	mask.bmp	blankscreen.bmp	wfn10.bmp	blankscreen.bmp	square.bmp										
408	real_b	real_bottomright_diff_b	4	930	23	mask.bmp	blankscreen.bmp	wmd7.bmp	blankscreen.bmp	square.bmp										
408	real_b	real_bottomright_diff_b	5	599	18	mask.bmp	blankscreen.bmp	wfd6.bmp	blankscreen.bmp	circle.bmp										
408	real_b	real_topright_diff_b	6	673	18	mask.bmp	blankscreen.bmp	wfn6.bmp	blankscreen.bmp	circle.bmp										
408	real_b	real_topleft_same_b	7	561	18	mask.bmp	blankscreen.bmp	wmn9.bmp	blankscreen.bmp	circle.bmp										
408	real_b	real_topright_same_b	8	637	23	mask.bmp	blankscreen.bmp	wmn10.bmp	blankscreen.bmp	square.bmp										
408	real_b	real_bottomleft_diff_b	9	565	23	mask.bmp	blankscreen.bmp	wmn8.bmp	blankscreen.bmp	square.bmp										
408	real_b	real_bottomleft_same_b	10	577	23	mask.bmp	blankscreen.bmp	wmd10.bmp	blankscreen.bmp	square.bmp										
408	real_b	real_bottomleft_same_b	11	579	23	mask.bmp	blankscreen.bmp	wfd9.bmp	blankscreen.bmp	square.bmp										
408	real_b	real_topleft_diff_b	12	735	18	mask.bmp	blankscreen.bmp	wfd7.bmp	blankscreen.bmp	circle.bmp										
408	real_b	real_topright_same_b	13	611	18	mask.bmp	blankscreen.bmp	wfn9.bmp	blankscreen.bmp	circle.bmp										
408	real_b	real_topleft_same_b	14	669	18	mask.bmp	blankscreen.bmp	wmd9.bmp	blankscreen.bmp	circle.bmp										
408	real_b	real_bottomright_same_b	15	933	23	mask.bmp	blankscreen.bmp	wfd10.bmp	blankscreen.bmp	square.bmp										
408	real_b	real_topright_diff_b	16	721	18	mask.bmp	blankscreen.bmp	wfd8.bmp	blankscreen.bmp	circle.bmp										
408	real_b	real_bottomleft_diff_b	17	711	18	mask.bmp	blankscreen.bmp	wmd6.bmp	blankscreen.bmp	circle.bmp										
408	real_b	real_topleft_diff_b	18	533	18	mask.bmp	blankscreen.bmp	wmn6.bmp	blankscreen.bmp	circle.bmp										
408	real_b	real_bottomright_diff_b	19	578	23	mask.bmp	blankscreen.bmp	wfn8.bmp	blankscreen.bmp	square.bmp										
408	real_b	real_bottomleft_diff_b	20	652	23	mask.bmp	blankscreen.bmp	wfn7.bmp	blankscreen.bmp	square.bmp										
408	real_c	real_bottomleft_diff_c	1	591	18	mask.bmp	blankscreen.bmp	wmd5.bmp	blankscreen.bmp	circle.bmp										
408	real_c	real_bottomleft_diff_c	2	514	18	mask.bmp	blankscreen.bmp	wfn3.bmp	blankscreen.bmp	circle.bmp										
408	real_c	real_topleft_same_c	3	296	18	mask.bmp	blankscreen.bmp	wfd1.bmp	blankscreen.bmp	circle.bmp										
408	real_c	real_bottomright_same_c	4	358	18	mask.bmp	blankscreen.bmp	wmn2.bmp	blankscreen.bmp	circle.bmp										
408	real_c	real_topleft_diff_c	5	530	18	mask.bmp	blankscreen.bmp	wfd3.bmp	blankscreen.bmp	circle.bmp										
408	real_c	real_topleft_diff_c	6	455	18	mask.bmp	blankscreen.bmp	wmn5.bmp	blankscreen.bmp	circle.bmp										
408	real_c	real_topright_diff_c	7	567	18	mask.bmp	blankscreen.bmp	wfn5.bmp	blankscreen.bmp	circle.bmp										
408	real_c	real_bottomright_diff_c	8	530	18	mask.bmp	blankscreen.bmp	wmd3.bmp	blankscreen.bmp	circle.bmp										
408	real_c	real_bottomleft_diff_c	9	695	23	mask.bmp	blankscreen.bmp	wfd4.bmp	blankscreen.bmp	square.bmp										
408	real_c	real_bottomleft_same_c	10	894	23	mask.bmp	blankscreen.bmp	wfd2.bmp	blankscreen.bmp	square.bmp										
408	real_c	real_bottomright_diff_c	11	748	18	mask.bmp	blankscreen.bmp	wmn4.bmp	blankscreen.bmp	circle.bmp										
408	real_c	real_topright_same_c	12	633	18	mask.bmp	blankscreen.bmp	wfn2.bmp	blankscreen.bmp	circle.bmp										
408	real_c	real_topright_diff_c	13	650	18	mask.bmp	blankscreen.bmp	wmn3.bmp	blankscreen.bmp	circle.bmp										
408	real_c	real_topleft_diff_c	14	746	23	mask.bmp	blankscreen.bmp	wfn4.bmp	blankscreen.bmp	square.bmp										
408	real_c	real_bottomleft_same_c	15	630	23	mask.bmp	blankscreen.bmp	wmn1.bmp	blankscreen.bmp	square.bmp										
408	real_c	real_topright_same_c	16	584	18	mask.bmp	blankscreen.bmp	wmd1.bmp	blankscreen.bmp	circle.bmp										
408	real_c	real_topleft_same_c	17	571	23	mask.bmp	blankscreen.bmp	wfn1.bmp	blankscreen.bmp	square.bmp										
408	real_c	real_topright_diff_c	18	559	18	mask.bmp	blankscreen.bmp	wmd4.bmp	blankscreen.bmp	circle.bmp										
408	real_c	real_bottomright_same_c	19	451	23	mask.bmp	blankscreen.bmp	wmd2.bmp	blankscreen.bmp	square.bmp										
408	real_c	real_bottomright_diff_c	20	539	18	mask.bmp	blankscreen.bmp	wfd5.bmp	blankscreen.bmp	circle.bmp										
408	real_d	real_bottomleft_diff_d	1	1143	18	mask.bmp	blankscreen.bmp	wmd8.bmp	blankscreen.bmp	circle.bmp										
408	real_d	real_topleft_same_d	2	676	23	mask.bmp	blankscreen.bmp	wmd6.bmp	blankscreen.bmp	square.bmp										
408	real_d	real_bottomleft_same_d	3	547	23	mask.bmp	blankscreen.bmp	wmn7.bmp	blankscreen.bmp	square.bmp										
408	real_d	real_bottomright_same_d	4	791	18	mask.bmp	blankscreen.bmp	wfd7.bmp	blankscreen.bmp	circle.bmp										
408	real_d	real_topright_same_d	5	538	18	mask.bmp	blankscreen.bmp	wmd7.bmp	blankscreen.bmp	circle.bmp										
408	real_d	real_topleft_same_d	6	607	23	mask.bmp	blankscreen.bmp	wmn6.bmp	blankscreen.bmp	square.bmp										
408	real_d	real_topright_diff_d	7	649	18	mask.bmp	blankscreen.bmp	wfn8.bmp	blankscreen.bmp	circle.bmp										
408	real_d	real_topright_diff_d	8	745	23	mask.bmp	blankscreen.bmp	wmd10.bmp	blankscreen.bmp	square.bmp										
408	real_d	real_topright_diff_d	9	709	23	mask.bmp	blankscreen.bmp	wfd9.bmp	blankscreen.bmp	square.bmp										
408	real_d	real_bottomright_diff_d	10	595	23	mask.bmp	blankscreen.bmp	wfd8.bmp	blankscreen.bmp	square.bmp										
408	real_d	real_bottomleft_diff_d	11	693	18	mask.bmp	blankscreen.bmp	wmn9.bmp	blankscreen.bmp	circle.bmp										
408	real_d	real_bottomright_diff_d	12	820	23	mask.bmp	blankscreen.bmp	wmn10.bmp	blankscreen.bmp	square.bmp										
408	real_d	real_topleft_diff_d	13	597	23	mask.bmp	blankscreen.bmp	wmd9.bmp	blankscreen.bmp	square.bmp										
408	real_d	real_bottomright_same_d	14	535	23	mask.bmp	blankscreen.bmp	wfn7.bmp	blankscreen.bmp	square.bmp										
408	real_d	real_bottomleft_diff_d	15	532	18	mask.bmp	blankscreen.bmp	wfd10.bmp	blankscreen.bmp	circle.bmp										
408	real_d	real_topleft_diff_d	16	738	18	mask.bmp	blankscreen.bmp	wmn8.bmp	blankscreen.bmp	circle.bmp										
408	real_d	real_bottomleft_same_d	17	454	23	mask.bmp	blankscreen.bmp	wfn6.bmp	blankscreen.bmp	circle.bmp										
408	real_d	real_bottomright_diff_d	18	678	23	mask.bmp	blankscreen.bmp	wfn9.bmp	blankscreen.bmp	square.bmp										
408	real_d	real_topright_same_d	19	678	18	mask.bmp	blankscreen.bmp	wfd6.bmp	blankscreen.bmp	circle.bmp										
408	real_d	real_topleft_diff_d	20	1661	23	mask.bmp	blankscreen.bmp	wfn10.bmp	blankscreen.bmp	square.bmp										
409	practice	practice_bottomright_same	1	1029	18	mask.bmp	blankscreen.bmp	practice7.jpg	blankscreen.bmp	circle.bmp										
409	practice	practice_bottomleft_same	2	501	23	mask.bmp	blankscreen.bmp	practice5.jpg	blankscreen.bmp	square.bmp										
409	practice	practice_topleft_diff	3	842	18	mask.bmp	blankscreen.bmp	practice9.jpg	blankscreen.bmp	circle.bmp										
409	practice	practice_topright_same	4	721	18	mask.bmp	blankscreen.bmp	practice4.jpg	blankscreen.bmp	square.bmp										
409	practice	practice_bottomright_diff	5	885	18	mask.bmp	blankscreen.bmp	practice12.jpg	blankscreen.bmp	circle.bmp										
409	practice	practice_topleft_same	6	731	18	mask.bmp	blankscreen.bmp	practice2.jpg	blankscreen.bmp	circle.bmp										
409	practice	practice_bottomright_same	7	679	18	mask.bmp	blankscreen.bmp	practice8.jpg	blankscreen.bmp	circle.bmp										
409	practice	practice_topright_same	8	821	18	mask.bmp	blankscreen.bmp	practice3.jpg	blankscreen.bmp	circle.bmp										
409	practice	practice_topright_diff	9	781	18	mask.bmp	blankscreen.bmp	practice10.jpg	blankscreen.bmp	circle.bmp										
409	practice	practice_topleft_same	10	911	18	mask.bmp	blankscreen.bmp	practice1.jpg	blankscreen.bmp	circle.bmp										
409	practice	practice_bottomleft_same	11	731	18	mask.bmp	blankscreen.bmp	practice6.jpg	blankscreen.bmp	circle.bmp										
409	practice	practice_bottomleft_diff	12	767	18	mask.bmp	blankscreen.bmp	practice11.jpg	blankscreen.bmp	circle.bmp										
409	real_a	real_topleft_same_a	1	867	23	mask.bmp	blankscreen.bmp	wfn4.bmp	blankscreen.bmp	square.bmp										
409	real_a	real_bottomleft_same_a	2	530	23	mask.bmp	blankscreen.bmp	wmd4.bmp	blankscreen.bmp	square.bmp										
409	real_a	real_bottomright_diff_a	3	527	18	mask.bmp	blankscreen.bmp	wmd1.bmp	blankscreen.bmp	circle.bmp										
409	real_a	real_topright_diff_a	4	885	23	mask.bmp	blankscreen.bmp	wfd2.bmp	blankscreen.bmp	square.bmp										
409	real_a	real_topright_same_a	5	547	23	mask.bmp	blankscreen.bmp	wmn4.bmp	blankscreen.bmp	square.bmp										
409	real_a	real_bottomleft_diff_a	6	639	18	mask.bmp	blankscreen.bmp	wfd3.bmp	blankscreen.bmp	circle.bmp										
409	real_a	real_bottomleft_same_a	7	432	18	mask.bmp	blankscreen.bmp	wfn5.bmp	blankscreen.bmp	circle.bmp										
409	real_a	real_topleft_diff_a	8	538	18	mask.bmp	blankscreen.bmp	wfn3.bmp	blankscreen.bmp	circle.bmp										
409	real_a	real_topright_diff_a	9	614	23	mask.bmp	blankscreen.bmp	wmn1.bmp	blankscreen.bmp	square.bmp										
409	real_a	real_topleft_same_a	10	688	18	mask.bmp	blankscreen.bmp	wfd4.bmp	blankscreen.bmp	circle.bmp										
409	real_a	real_bottomright_same_a	11	430	18	mask.bmp	blankscreen.bmp	wmn5.bmp	blankscreen.bmp	circle.bmp										
409	real_a	real_bottomright_diff_a	12	656	18	mask.bmp	blankscreen.bmp	wfn2.bmp	blankscreen.bmp	circle.bmp										
409	real_a	real_topright_same_a	13	416	23	mask.bmp	blankscreen.bmp	wfd5.bmp	blankscreen.bmp	square.bmp										
409	real_a	real_topleft_diff_a	14	346	23	mask.bmp	blankscreen.bmp	wmd2.bmp	blankscreen.bmp	square.bmp										
409	real_a	real_bottomleft_diff_a	15	342	23	mask.bmp	blankscreen.bmp	wfn1.bmp	blankscreen.bmp	circle.bmp										
409	real_a	real_bottomright_diff_a	16	603	23	mask.bmp	blankscreen.bmp	wmn3.bmp	blankscreen.bmp	square.bmp										
409	real_a	real_topright_diff_a	17	477	18	mask.bmp	blankscreen.bmp	wmd3.bmp	blankscreen.bmp	circle.bmp										
409	real_a	real_bottomright_same_a	18	596	18	mask.bmp	blankscreen.bmp	wmd5.bmp	blankscreen.bmp	circle.bmp										
409	real_a	real_bottomleft_diff_a	19	670	18	mask.bmp	blankscreen.bmp	wmn2.bmp	blankscreen.bmp	circle.bmp										
409	real_a	real_topleft_diff_a	20	766	18	mask.bmp	blankscreen.bmp	wfd1.bmp	blankscreen.bmp	circle.bmp										
409	real_b	real_topright_same_b	1	455	18	mask.bmp	blankscreen.bmp	wfn9.bmp	blankscreen.bmp	circle.bmp										
409	real_b	real_topright_diff_b	2	543	23	mask.bmp	blankscreen.bmp	wmn7.bmp	blankscreen.bmp	square.bmp										
409	real_b	real_bottomleft_diff_b	3	764	18	mask.bmp	blankscreen.bmp	wmn8.bmp	blankscreen.bmp	circle.bmp										
409	real_b	real_bottomleft_same_b	4	751	18	mask.bmp	blankscreen.bmp	wfd9.bmp	blankscreen.bmp	circle.bmp										
409	real_b	real_bottomright_diff_b	5	627	23	mask.bmp	blankscreen.bmp	wfn8.bmp	blankscreen.bmp	square.bmp										
409	real_b	real_bottomleft_diff_b	6	725	23	mask.bmp	blankscreen.bmp	wmd6.bmp	blankscreen.bmp	square.bmp										
409	real_b	real_bottomright_diff_b	7	1402	18	mask.bmp	blankscreen.bmp	wmd7.bmp	blankscreen.bmp	circle.bmp										
409	real_b	real_bottomright_same_b	8	540	23	mask.bmp	blankscreen.bmp	wfn10.bmp	blankscreen.bmp	square.bmp										
409	real_b	real_bottomright_same_b	9	489	18	mask.bmp	blankscreen.bmp	wfd10.bmp	blankscreen.bmp	circle.bmp										
409	real_b	real_bottomright_diff_b	10	671	23	mask.bmp	blankscreen.bmp	wfd6.bmp	blankscreen.bmp	square.bmp										
409	real_b	real_bottomleft_diff_b	11	487	18	mask.bmp	blankscreen.bmp	wfn7.bmp	blankscreen.bmp	circle.bmp										
409	real_b	real_topleft_diff_b	12	709	18	mask.bmp	blankscreen.bmp	wmd8.bmp	blankscreen.bmp	circle.bmp										
409	real_b	real_topleft_same_b	13	459	18	mask.bmp	blankscreen.bmp	wmd9.bmp	blankscreen.bmp	circle.bmp										
409	real_b	real_topleft_same_b	14	315	18	mask.bmp	blankscreen.bmp	wmn9.bmp	blankscreen.bmp	circle.bmp										
409	real_b	real_topleft_diff_b	15	689	18	mask.bmp	blankscreen.bmp	wfd7.bmp	blankscreen.bmp	circle.bmp										
409	real_b	real_topright_diff_b	16	495	18	mask.bmp	blankscreen.bmp	wfd8.bmp	blankscreen.bmp	circle.bmp										
409	real_b	real_topright_same_b	17	526	23	mask.bmp	blankscreen.bmp	wmn10.bmp	blankscreen.bmp	square.bmp										
409	real_b	real_topleft_diff_b	18	595	18	mask.bmp	blankscreen.bmp	wmn6.bmp	blankscreen.bmp	circle.bmp										
409	real_b	real_topright_diff_b	19	822	23	mask.bmp	blankscreen.bmp	wfn6.bmp	blankscreen.bmp	square.bmp										
409	real_b	real_bottomleft_same_b	20	503	18	mask.bmp	blankscreen.bmp	wmd10.bmp	blankscreen.bmp	circle.bmp										
409	real_c	real_topleft_diff_c	1	697	23	mask.bmp	blankscreen.bmp	wfn4.bmp	blankscreen.bmp	square.bmp										
409	real_c	real_topright_same_c	2	631	23	mask.bmp	blankscreen.bmp	wmd1.bmp	blankscreen.bmp	square.bmp										
409	real_c	real_bottomright_same_c	3	553	23	mask.bmp	blankscreen.bmp	wmn2.bmp	blankscreen.bmp	square.bmp										
409	real_c	real_topleft_same_c	4	501	18	mask.bmp	blankscreen.bmp	wfn1.bmp	blankscreen.bmp	circle.bmp										
409	real_c	real_topright_diff_c	5	587	23	mask.bmp	blankscreen.bmp	wfn5.bmp	blankscreen.bmp	square.bmp										
409	real_c	real_topleft_diff_c	6	598	23	mask.bmp	blankscreen.bmp	wfd3.bmp	blankscreen.bmp	square.bmp										
409	real_c	real_bottomright_diff_c	7	600	23	mask.bmp	blankscreen.bmp	wfd5.bmp	blankscreen.bmp	square.bmp										
409	real_c	real_bottomright_same_c	8	538	18	mask.bmp	blankscreen.bmp	wmd2.bmp	blankscreen.bmp	circle.bmp										
409	real_c	real_topright_same_c	9	591	18	mask.bmp	blankscreen.bmp	wfn2.bmp	blankscreen.bmp	circle.bmp										
409	real_c	real_bottomright_diff_c	10	538	18	mask.bmp	blankscreen.bmp	wmd3.bmp	blankscreen.bmp	circle.bmp										
409	real_c	real_bottomleft_diff_c	11	502	18	mask.bmp	blankscreen.bmp	wfd4.bmp	blankscreen.bmp	circle.bmp										
409	real_c	real_bottomleft_diff_c	12	580	23	mask.bmp	blankscreen.bmp	wmd5.bmp	blankscreen.bmp	square.bmp										
409	real_c	real_bottomleft_same_c	13	656	18	mask.bmp	blankscreen.bmp	wfd2.bmp	blankscreen.bmp	square.bmp										
409	real_c	real_topright_diff_c	14	624	23	mask.bmp	blankscreen.bmp	wmd4.bmp	blankscreen.bmp	square.bmp										
409	real_c	real_bottomleft_same_c	15	601	18	mask.bmp	blankscreen.bmp	wmn1.bmp	blankscreen.bmp	circle.bmp										
409	real_c	real_topleft_diff_c	16	635	23	mask.bmp	blankscreen.bmp	wmn5.bmp	blankscreen.bmp	square.bmp										
409	real_c	real_topright_diff_c	17	612	18	mask.bmp	blankscreen.bmp	wmn3.bmp	blankscreen.bmp	circle.bmp										
409	real_c	real_bottomright_diff_c	18	718	18	mask.bmp	blankscreen.bmp	wmn4.bmp	blankscreen.bmp	circle.bmp										
409	real_c	real_topleft_same_c	19	716	23	mask.bmp	blankscreen.bmp	wfd1.bmp	blankscreen.bmp	square.bmp										
409	real_c	real_bottomleft_diff_c	20	818	23	mask.bmp	blankscreen.bmp	wfn3.bmp	blankscreen.bmp	square.bmp										
409	real_d	real_bottomright_same_d	1	555	18	mask.bmp	blankscreen.bmp	wfn7.bmp	blankscreen.bmp	circle.bmp										
409	real_d	real_topright_same_d	2	495	18	mask.bmp	blankscreen.bmp	wmd7.bmp	blankscreen.bmp	circle.bmp										
409	real_d	real_topleft_same_d	3	541	23	mask.bmp	blankscreen.bmp	wmd6.bmp	blankscreen.bmp	square.bmp										
409	real_d	real_bottomleft_diff_d	4	626	18	mask.bmp	blankscreen.bmp	wfd10.bmp	blankscreen.bmp	circle.bmp										
409	real_d	real_bottomleft_diff_d	5	555	18	mask.bmp	blankscreen.bmp	wmn9.bmp	blankscreen.bmp	circle.bmp										
409	real_d	real_bottomright_diff_d	6	687	23	mask.bmp	blankscreen.bmp	wfd8.bmp	blankscreen.bmp	square.bmp										
409	real_d	real_bottomleft_same_d	7	542	18	mask.bmp	blankscreen.bmp	wmn7.bmp	blankscreen.bmp	circle.bmp										
409	real_d	real_topleft_diff_d	8	539	23	mask.bmp	blankscreen.bmp	wmd9.bmp	blankscreen.bmp	square.bmp										
409	real_d	real_bottomleft_diff_d	9	863	23	mask.bmp	blankscreen.bmp	wmd8.bmp	blankscreen.bmp	square.bmp										
409	real_d	real_topright_diff_d	10	551	18	mask.bmp	blankscreen.bmp	wmd10.bmp	blankscreen.bmp	circle.bmp										
409	real_d	real_bottomright_same_d	11	547	18	mask.bmp	blankscreen.bmp	wfd7.bmp	blankscreen.bmp	circle.bmp										
409	real_d	real_topright_diff_d	12	647	18	mask.bmp	blankscreen.bmp	wfd9.bmp	blankscreen.bmp	circle.bmp										
409	real_d	real_bottomright_diff_d	13	663	23	mask.bmp	blankscreen.bmp	wmn10.bmp	blankscreen.bmp	square.bmp										
409	real_d	real_topleft_diff_d	14	703	18	mask.bmp	blankscreen.bmp	wmn8.bmp	blankscreen.bmp	circle.bmp										
409	real_d	real_topright_diff_d	15	1045	18	mask.bmp	blankscreen.bmp	wfn8.bmp	blankscreen.bmp	circle.bmp										
409	real_d	real_bottomleft_same_d	16	725	23	mask.bmp	blankscreen.bmp	wfn6.bmp	blankscreen.bmp	square.bmp										
409	real_d	real_topright_same_d	17	427	18	mask.bmp	blankscreen.bmp	wfd6.bmp	blankscreen.bmp	square.bmp										
409	real_d	real_topleft_same_d	18	532	23	mask.bmp	blankscreen.bmp	wmn6.bmp	blankscreen.bmp	square.bmp										
409	real_d	real_topleft_diff_d	19	753	18	mask.bmp	blankscreen.bmp	wfn10.bmp	blankscreen.bmp	circle.bmp										
409	real_d	real_bottomright_diff_d	20	445	18	mask.bmp	blankscreen.bmp	wfn9.bmp	blankscreen.bmp	circle.bmp										
410	practice	practice_bottomleft_same	1	2118	18	mask.bmp	blankscreen.bmp	practice6.jpg	blankscreen.bmp	circle.bmp										
410	practice	practice_topright_same	2	706	18	mask.bmp	blankscreen.bmp	practice4.jpg	blankscreen.bmp	circle.bmp										
410	practice	practice_topleft_diff	3	799	23	mask.bmp	blankscreen.bmp	practice9.jpg	blankscreen.bmp	square.bmp										
410	practice	practice_bottomleft_same	4	1280	23	mask.bmp	blankscreen.bmp	practice5.jpg	blankscreen.bmp	square.bmp										
410	practice	practice_bottomleft_diff	5	694	18	mask.bmp	blankscreen.bmp	practice11.jpg	blankscreen.bmp	circle.bmp										
410	practice	practice_topright_diff	6	660	23	mask.bmp	blankscreen.bmp	practice10.jpg	blankscreen.bmp	square.bmp										
410	practice	practice_topright_same	7	706	23	mask.bmp	blankscreen.bmp	practice3.jpg	blankscreen.bmp	square.bmp										
410	practice	practice_topleft_same	8	599	23	mask.bmp	blankscreen.bmp	practice2.jpg	blankscreen.bmp	square.bmp										
410	practice	practice_bottomright_same	9	648	23	mask.bmp	blankscreen.bmp	practice7.jpg	blankscreen.bmp	square.bmp										
410	practice	practice_bottomright_diff	10	872	23	mask.bmp	blankscreen.bmp	practice12.jpg	blankscreen.bmp	square.bmp										
410	practice	practice_topleft_same	11	358	18	mask.bmp	blankscreen.bmp	practice1.jpg	blankscreen.bmp	circle.bmp										
410	practice	practice_bottomright_same	12	320	23	mask.bmp	blankscreen.bmp	practice8.jpg	blankscreen.bmp	square.bmp										
410	real_a	real_bottomright_same_a	1	599	23	mask.bmp	blankscreen.bmp	wmn5.bmp	blankscreen.bmp	square.bmp										
410	real_a	real_bottomleft_diff_a	2	737	23	mask.bmp	blankscreen.bmp	wfn1.bmp	blankscreen.bmp	square.bmp										
410	real_a	real_topleft_same_a	3	526	23	mask.bmp	blankscreen.bmp	wfd4.bmp	blankscreen.bmp	square.bmp										
410	real_a	real_topleft_diff_a	4	675	23	mask.bmp	blankscreen.bmp	wmd2.bmp	blankscreen.bmp	square.bmp										
410	real_a	real_bottomleft_same_a	5	731	23	mask.bmp	blankscreen.bmp	wmd4.bmp	blankscreen.bmp	square.bmp										
410	real_a	real_bottomright_diff_a	6	648	18	mask.bmp	blankscreen.bmp	wmn3.bmp	blankscreen.bmp	circle.bmp										
410	real_a	real_topright_diff_a	7	713	23	mask.bmp	blankscreen.bmp	wfd2.bmp	blankscreen.bmp	square.bmp										
410	real_a	real_bottomright_diff_a	8	399	23	mask.bmp	blankscreen.bmp	wmd1.bmp	blankscreen.bmp	square.bmp										
410	real_a	real_topright_same_a	9	393	18	mask.bmp	blankscreen.bmp	wfd5.bmp	blankscreen.bmp	circle.bmp										
410	real_a	real_bottomright_diff_a	10	675	18	mask.bmp	blankscreen.bmp	wfn2.bmp	blankscreen.bmp	square.bmp										
410	real_a	real_topleft_diff_a	11	1147	18	mask.bmp	blankscreen.bmp	wfd1.bmp	blankscreen.bmp	circle.bmp										
410	real_a	real_topleft_same_a	12	1151	18	mask.bmp	blankscreen.bmp	wfn4.bmp	blankscreen.bmp	circle.bmp										
410	real_a	real_topright_same_a	13	611	18	mask.bmp	blankscreen.bmp	wmn4.bmp	blankscreen.bmp	circle.bmp										
410	real_a	real_topright_diff_a	14	973	23	mask.bmp	blankscreen.bmp	wmn1.bmp	blankscreen.bmp	square.bmp										
410	real_a	real_topright_diff_a	15	760	18	mask.bmp	blankscreen.bmp	wmd3.bmp	blankscreen.bmp	circle.bmp										
410	real_a	real_topleft_diff_a	16	676	18	mask.bmp	blankscreen.bmp	wfn3.bmp	blankscreen.bmp	circle.bmp										
410	real_a	real_bottomleft_same_a	17	596	18	mask.bmp	blankscreen.bmp	wfn5.bmp	blankscreen.bmp	circle.bmp										
410	real_a	real_bottomright_same_a	18	758	23	mask.bmp	blankscreen.bmp	wmd5.bmp	blankscreen.bmp	square.bmp										
410	real_a	real_bottomleft_diff_a	19	946	18	mask.bmp	blankscreen.bmp	wmn2.bmp	blankscreen.bmp	circle.bmp										
410	real_a	real_bottomleft_diff_a	20	462	23	mask.bmp	blankscreen.bmp	wfd3.bmp	blankscreen.bmp	square.bmp										
410	real_b	real_bottomright_same_b	1	1279	23	mask.bmp	blankscreen.bmp	wfn10.bmp	blankscreen.bmp	square.bmp										
410	real_b	real_topright_diff_b	2	646	18	mask.bmp	blankscreen.bmp	wfn6.bmp	blankscreen.bmp	circle.bmp										
410	real_b	real_topright_diff_b	3	1087	18	mask.bmp	blankscreen.bmp	wfd8.bmp	blankscreen.bmp	circle.bmp										
410	real_b	real_topleft_diff_b	4	598	23	mask.bmp	blankscreen.bmp	wfd7.bmp	blankscreen.bmp	square.bmp										
410	real_b	real_bottomleft_diff_b	5	896	18	mask.bmp	blankscreen.bmp	wmn8.bmp	blankscreen.bmp	circle.bmp										
410	real_b	real_bottomright_diff_b	6	678	23	mask.bmp	blankscreen.bmp	wfd6.bmp	blankscreen.bmp	square.bmp										
410	real_b	real_bottomright_diff_b	7	605	23	mask.bmp	blankscreen.bmp	wmd7.bmp	blankscreen.bmp	square.bmp										
410	real_b	real_topleft_same_b	8	535	23	mask.bmp	blankscreen.bmp	wmn9.bmp	blankscreen.bmp	square.bmp										
410	real_b	real_bottomright_same_b	9	532	23	mask.bmp	blankscreen.bmp	wfd10.bmp	blankscreen.bmp	square.bmp										
410	real_b	real_bottomleft_diff_b	10	793	23	mask.bmp	blankscreen.bmp	wmd6.bmp	blankscreen.bmp	square.bmp										
410	real_b	real_topleft_diff_b	11	508	18	mask.bmp	blankscreen.bmp	wmn6.bmp	blankscreen.bmp	circle.bmp										
410	real_b	real_bottomleft_diff_b	12	691	18	mask.bmp	blankscreen.bmp	wfn7.bmp	blankscreen.bmp	square.bmp										
410	real_b	real_topleft_diff_b	13	1009	18	mask.bmp	blankscreen.bmp	wmd8.bmp	blankscreen.bmp	circle.bmp										
410	real_b	real_topright_same_b	14	667	18	mask.bmp	blankscreen.bmp	wmn10.bmp	blankscreen.bmp	circle.bmp										
410	real_b	real_bottomleft_same_b	15	691	18	mask.bmp	blankscreen.bmp	wmd10.bmp	blankscreen.bmp	circle.bmp										
410	real_b	real_bottomleft_same_b	16	721	23	mask.bmp	blankscreen.bmp	wfd9.bmp	blankscreen.bmp	square.bmp										
410	real_b	real_topright_diff_b	17	750	23	mask.bmp	blankscreen.bmp	wmn7.bmp	blankscreen.bmp	square.bmp										
410	real_b	real_bottomright_diff_b	18	522	18	mask.bmp	blankscreen.bmp	wfn8.bmp	blankscreen.bmp	circle.bmp										
410	real_b	real_topright_same_b	19	807	18	mask.bmp	blankscreen.bmp	wfn9.bmp	blankscreen.bmp	circle.bmp										
410	real_b	real_topleft_same_b	20	641	18	mask.bmp	blankscreen.bmp	wmd9.bmp	blankscreen.bmp	circle.bmp										
410	real_c	real_topright_diff_c	1	696	18	mask.bmp	blankscreen.bmp	wmn3.bmp	blankscreen.bmp	circle.bmp										
410	real_c	real_bottomleft_diff_c	2	574	23	mask.bmp	blankscreen.bmp	wfd4.bmp	blankscreen.bmp	square.bmp										
410	real_c	real_topleft_diff_c	3	641	23	mask.bmp	blankscreen.bmp	wmn5.bmp	blankscreen.bmp	square.bmp										
410	real_c	real_bottomright_diff_c	4	762	23	mask.bmp	blankscreen.bmp	wmn4.bmp	blankscreen.bmp	square.bmp										
410	real_c	real_bottomleft_diff_c	5	606	23	mask.bmp	blankscreen.bmp	wfn3.bmp	blankscreen.bmp	square.bmp										
410	real_c	real_bottomright_diff_c	6	752	18	mask.bmp	blankscreen.bmp	wmd3.bmp	blankscreen.bmp	square.bmp										
410	real_c	real_bottomright_same_c	7	660	23	mask.bmp	blankscreen.bmp	wmd2.bmp	blankscreen.bmp	square.bmp										
410	real_c	real_bottomleft_same_c	8	796	23	mask.bmp	blankscreen.bmp	wfd2.bmp	blankscreen.bmp	square.bmp										
410	real_c	real_bottomleft_same_c	9	607	23	mask.bmp	blankscreen.bmp	wmn1.bmp	blankscreen.bmp	square.bmp										
410	real_c	real_topright_diff_c	10	881	23	mask.bmp	blankscreen.bmp	wmd4.bmp	blankscreen.bmp	square.bmp										
410	real_c	real_topright_same_c	11	904	18	mask.bmp	blankscreen.bmp	wfn2.bmp	blankscreen.bmp	circle.bmp										
410	real_c	real_bottomright_diff_c	12	918	23	mask.bmp	blankscreen.bmp	wfd5.bmp	blankscreen.bmp	square.bmp										
410	real_c	real_bottomleft_diff_c	13	1084	23	mask.bmp	blankscreen.bmp	wmd5.bmp	blankscreen.bmp	square.bmp										
410	real_c	real_bottomright_same_c	14	643	18	mask.bmp	blankscreen.bmp	wmn2.bmp	blankscreen.bmp	circle.bmp										
410	real_c	real_topleft_diff_c	15	867	23	mask.bmp	blankscreen.bmp	wfn4.bmp	blankscreen.bmp	square.bmp										
410	real_c	real_topleft_same_c	16	627	18	mask.bmp	blankscreen.bmp	wfd1.bmp	blankscreen.bmp	circle.bmp										
410	real_c	real_topright_same_c	17	644	18	mask.bmp	blankscreen.bmp	wmd1.bmp	blankscreen.bmp	circle.bmp										
410	real_c	real_topright_diff_c	18	829	23	mask.bmp	blankscreen.bmp	wfn5.bmp	blankscreen.bmp	square.bmp										
410	real_c	real_topleft_same_c	19	582	18	mask.bmp	blankscreen.bmp	wfn1.bmp	blankscreen.bmp	circle.bmp										
410	real_c	real_topleft_diff_c	20	409	23	mask.bmp	blankscreen.bmp	wfd3.bmp	blankscreen.bmp	square.bmp										
410	real_d	real_topleft_diff_d	1	556	23	mask.bmp	blankscreen.bmp	wfn10.bmp	blankscreen.bmp	square.bmp										
410	real_d	real_topleft_diff_d	2	1208	18	mask.bmp	blankscreen.bmp	wmn8.bmp	blankscreen.bmp	circle.bmp										
410	real_d	real_bottomright_diff_d	3	610	18	mask.bmp	blankscreen.bmp	wfd8.bmp	blankscreen.bmp	circle.bmp										
410	real_d	real_topright_same_d	4	428	23	mask.bmp	blankscreen.bmp	wmd7.bmp	blankscreen.bmp	square.bmp										
410	real_d	real_bottomleft_same_d	5	749	23	mask.bmp	blankscreen.bmp	wfn6.bmp	blankscreen.bmp	square.bmp										
410	real_d	real_bottomleft_diff_d	6	545	23	mask.bmp	blankscreen.bmp	wmd8.bmp	blankscreen.bmp	square.bmp										
410	real_d	real_bottomleft_diff_d	7	446	18	mask.bmp	blankscreen.bmp	wmn9.bmp	blankscreen.bmp	circle.bmp										
410	real_d	real_topleft_same_d	8	1094	18	mask.bmp	blankscreen.bmp	wmd6.bmp	blankscreen.bmp	circle.bmp										
410	real_d	real_topright_diff_d	9	476	23	mask.bmp	blankscreen.bmp	wfd9.bmp	blankscreen.bmp	square.bmp										
410	real_d	real_bottomright_diff_d	10	788	23	mask.bmp	blankscreen.bmp	wmn10.bmp	blankscreen.bmp	square.bmp										
410	real_d	real_bottomright_diff_d	11	590	18	mask.bmp	blankscreen.bmp	wfn9.bmp	blankscreen.bmp	circle.bmp										
410	real_d	real_topright_same_d	12	673	18	mask.bmp	blankscreen.bmp	wfd6.bmp	blankscreen.bmp	circle.bmp										
410	real_d	real_topright_diff_d	13	457	23	mask.bmp	blankscreen.bmp	wmd10.bmp	blankscreen.bmp	square.bmp										
410	real_d	real_topright_diff_d	14	633	18	mask.bmp	blankscreen.bmp	wfn8.bmp	blankscreen.bmp	circle.bmp										
410	real_d	real_topleft_diff_d	15	585	23	mask.bmp	blankscreen.bmp	wmd9.bmp	blankscreen.bmp	square.bmp										
410	real_d	real_topleft_same_d	16	604	23	mask.bmp	blankscreen.bmp	wmn6.bmp	blankscreen.bmp	square.bmp										
410	real_d	real_bottomright_same_d	17	430	23	mask.bmp	blankscreen.bmp	wfn7.bmp	blankscreen.bmp	square.bmp										
410	real_d	real_bottomright_same_d	18	463	18	mask.bmp	blankscreen.bmp	wfd7.bmp	blankscreen.bmp	circle.bmp										
410	real_d	real_bottomleft_same_d	19	367	23	mask.bmp	blankscreen.bmp	wmn7.bmp	blankscreen.bmp	square.bmp										
410	real_d	real_bottomleft_diff_d	20	539	23	mask.bmp	blankscreen.bmp	wfd10.bmp	blankscreen.bmp	square.bmp										
413	practice	practice_topleft_diff	1	2843	18	mask.bmp	blankscreen.bmp	practice9.jpg	blankscreen.bmp	circle.bmp										
413	practice	practice_bottomleft_diff	2	466	23	mask.bmp	blankscreen.bmp	practice11.jpg	blankscreen.bmp	circle.bmp										
413	practice	practice_bottomleft_same	3	488	18	mask.bmp	blankscreen.bmp	practice5.jpg	blankscreen.bmp	circle.bmp										
413	practice	practice_bottomright_diff	4	358	18	mask.bmp	blankscreen.bmp	practice12.jpg	blankscreen.bmp	square.bmp										
413	practice	practice_topright_same	5	481	23	mask.bmp	blankscreen.bmp	practice4.jpg	blankscreen.bmp	square.bmp										
413	practice	practice_topleft_same	6	367	18	mask.bmp	blankscreen.bmp	practice2.jpg	blankscreen.bmp	circle.bmp										
413	practice	practice_topleft_same	7	354	18	mask.bmp	blankscreen.bmp	practice1.jpg	blankscreen.bmp	circle.bmp										
413	practice	practice_topright_same	8	437	18	mask.bmp	blankscreen.bmp	practice3.jpg	blankscreen.bmp	circle.bmp										
413	practice	practice_topright_diff	9	532	23	mask.bmp	blankscreen.bmp	practice10.jpg	blankscreen.bmp	square.bmp										
413	practice	practice_bottomright_same	10	376	18	mask.bmp	blankscreen.bmp	practice7.jpg	blankscreen.bmp	circle.bmp										
413	practice	practice_bottomright_same	11	282	18	mask.bmp	blankscreen.bmp	practice8.jpg	blankscreen.bmp	circle.bmp										
413	practice	practice_bottomleft_same	12	240	18	mask.bmp	blankscreen.bmp	practice6.jpg	blankscreen.bmp	square.bmp										
413	real_a	real_topleft_same_a	1	537	23	mask.bmp	blankscreen.bmp	wfd4.bmp	blankscreen.bmp	square.bmp										
413	real_a	real_bottomleft_diff_a	2	406	18	mask.bmp	blankscreen.bmp	wfd3.bmp	blankscreen.bmp	square.bmp										
413	real_a	real_topleft_diff_a	3	520	18	mask.bmp	blankscreen.bmp	wfn3.bmp	blankscreen.bmp	circle.bmp										
413	real_a	real_topleft_same_a	4	429	18	mask.bmp	blankscreen.bmp	wfn4.bmp	blankscreen.bmp	circle.bmp										
413	real_a	real_bottomright_diff_a	5	534	23	mask.bmp	blankscreen.bmp	wmn3.bmp	blankscreen.bmp	circle.bmp										
413	real_a	real_bottomleft_same_a	6	491	18	mask.bmp	blankscreen.bmp	wfn5.bmp	blankscreen.bmp	circle.bmp										
413	real_a	real_topright_diff_a	7	474	18	mask.bmp	blankscreen.bmp	wmn1.bmp	blankscreen.bmp	circle.bmp										
413	real_a	real_topright_same_a	8	481	23	mask.bmp	blankscreen.bmp	wfd5.bmp	blankscreen.bmp	square.bmp										
413	real_a	real_bottomleft_same_a	9	240	18	mask.bmp	blankscreen.bmp	wmd4.bmp	blankscreen.bmp	square.bmp										
413	real_a	real_bottomright_same_a	10	416	23	mask.bmp	blankscreen.bmp	wmn5.bmp	blankscreen.bmp	square.bmp										
413	real_a	real_bottomright_diff_a	11	514	18	mask.bmp	blankscreen.bmp	wmd1.bmp	blankscreen.bmp	circle.bmp										
413	real_a	real_topleft_diff_a	12	376	23	mask.bmp	blankscreen.bmp	wmd2.bmp	blankscreen.bmp	circle.bmp										
413	real_a	real_bottomleft_diff_a	13	476	23	mask.bmp	blankscreen.bmp	wfn1.bmp	blankscreen.bmp	square.bmp										
413	real_a	real_topright_diff_a	14	395	18	mask.bmp	blankscreen.bmp	wmd3.bmp	blankscreen.bmp	circle.bmp										
413	real_a	real_topright_diff_a	15	438	18	mask.bmp	blankscreen.bmp	wfd2.bmp	blankscreen.bmp	circle.bmp										
413	real_a	real_bottomright_diff_a	16	366	18	mask.bmp	blankscreen.bmp	wfn2.bmp	blankscreen.bmp	circle.bmp										
413	real_a	real_topright_same_a	17	282	23	mask.bmp	blankscreen.bmp	wmn4.bmp	blankscreen.bmp	circle.bmp										
413	real_a	real_topleft_diff_a	18	521	18	mask.bmp	blankscreen.bmp	wfd1.bmp	blankscreen.bmp	circle.bmp										
413	real_a	real_bottomright_same_a	19	382	18	mask.bmp	blankscreen.bmp	wmd5.bmp	blankscreen.bmp	circle.bmp										
413	real_a	real_bottomleft_diff_a	20	490	23	mask.bmp	blankscreen.bmp	wmn2.bmp	blankscreen.bmp	square.bmp										
413	real_b	real_bottomleft_same_b	1	430	23	mask.bmp	blankscreen.bmp	wfd9.bmp	blankscreen.bmp	square.bmp										
413	real_b	real_topright_diff_b	2	559	23	mask.bmp	blankscreen.bmp	wmn7.bmp	blankscreen.bmp	square.bmp										
