subject	blockcode	trialcode	trialnum	latency	response	stimulusitem1	stimulusitem2	stimulusitem3	stimulusitem4	stimulusitem5
405	practice	practice_topright_same	1	1553	18	mask.bmp	blankscreen.bmp	practice4.jpg	blankscreen.bmp	circle.bmp
405	practice	practice_bottomleft_diff	2	587	18	mask.bmp	blankscreen.bmp	practice11.jpg	blankscreen.bmp	circle.bmp
405	practice	practice_topleft_same	3	365	18	mask.bmp	blankscreen.bmp	practice1.jpg	blankscreen.bmp	circle.bmp
405	practice	practice_bottomright_same	4	319	23	mask.bmp	blankscreen.bmp	practice8.jpg	blankscreen.bmp	square.bmp
405	practice	practice_topleft_same	5	483	18	mask.bmp	blankscreen.bmp	practice2.jpg	blankscreen.bmp	circle.bmp
405	practice	practice_bottomright_same	6	449	18	mask.bmp	blankscreen.bmp	practice7.jpg	blankscreen.bmp	circle.bmp
405	practice	practice_bottomright_diff	7	552	18	mask.bmp	blankscreen.bmp	practice12.jpg	blankscreen.bmp	circle.bmp
405	practice	practice_topright_same	8	443	18	mask.bmp	blankscreen.bmp	practice3.jpg	blankscreen.bmp	circle.bmp
405	practice	practice_topleft_diff	9	443	23	mask.bmp	blankscreen.bmp	practice9.jpg	blankscreen.bmp	square.bmp
405	practice	practice_topright_diff	10	442	23	mask.bmp	blankscreen.bmp	practice10.jpg	blankscreen.bmp	square.bmp
405	practice	practice_bottomleft_same	11	305	23	mask.bmp	blankscreen.bmp	practice6.jpg	blankscreen.bmp	square.bmp
405	practice	practice_bottomleft_same	12	390	23	mask.bmp	blankscreen.bmp	practice5.jpg	blankscreen.bmp	square.bmp
405	real_a	real_bottomright_same_a	1	502	23	mask.bmp	blankscreen.bmp	wmn5.bmp	blankscreen.bmp	square.bmp
405	real_a	real_bottomleft_diff_a	2	532	23	mask.bmp	blankscreen.bmp	wfd3.bmp	blankscreen.bmp	square.bmp
405	real_a	real_topleft_diff_a	3	473	18	mask.bmp	blankscreen.bmp	wfd1.bmp	blankscreen.bmp	circle.bmp
405	real_a	real_bottomleft_same_a	4	64	18	mask.bmp	blankscreen.bmp	wfn5.bmp	blankscreen.bmp	circle.bmp
405	real_a	real_topleft_same_a	5	335	18	mask.bmp	blankscreen.bmp	wfn4.bmp	blankscreen.bmp	circle.bmp
405	real_a	real_bottomleft_diff_a	6	484	23	mask.bmp	blankscreen.bmp	wfn1.bmp	blankscreen.bmp	square.bmp
405	real_a	real_bottomright_diff_a	7	531	23	mask.bmp	blankscreen.bmp	wfn2.bmp	blankscreen.bmp	square.bmp
405	real_a	real_topleft_same_a	8	504	18	mask.bmp	blankscreen.bmp	wfd4.bmp	blankscreen.bmp	circle.bmp
405	real_a	real_bottomright_diff_a	9	438	18	mask.bmp	blankscreen.bmp	wmn3.bmp	blankscreen.bmp	square.bmp
405	real_a	real_topright_same_a	10	359	23	mask.bmp	blankscreen.bmp	wmn4.bmp	blankscreen.bmp	circle.bmp
405	real_a	real_bottomright_same_a	11	730	18	mask.bmp	blankscreen.bmp	wmd5.bmp	blankscreen.bmp	circle.bmp
405	real_a	real_bottomright_diff_a	12	552	23	mask.bmp	blankscreen.bmp	wmd1.bmp	blankscreen.bmp	square.bmp
405	real_a	real_topright_diff_a	13	572	23	mask.bmp	blankscreen.bmp	wmn1.bmp	blankscreen.bmp	square.bmp
405	real_a	real_bottomleft_diff_a	14	527	18	mask.bmp	blankscreen.bmp	wmn2.bmp	blankscreen.bmp	circle.bmp
405	real_a	real_topleft_diff_a	15	389	18	mask.bmp	blankscreen.bmp	wfn3.bmp	blankscreen.bmp	circle.bmp
405	real_a	real_topright_diff_a	16	439	23	mask.bmp	blankscreen.bmp	wmd3.bmp	blankscreen.bmp	square.bmp
405	real_a	real_topleft_diff_a	17	480	23	mask.bmp	blankscreen.bmp	wmd2.bmp	blankscreen.bmp	square.bmp
405	real_a	real_bottomleft_same_a	18	439	18	mask.bmp	blankscreen.bmp	wmd4.bmp	blankscreen.bmp	circle.bmp
405	real_a	real_topright_same_a	19	472	18	mask.bmp	blankscreen.bmp	wfd5.bmp	blankscreen.bmp	circle.bmp
405	real_a	real_topright_diff_a	20	423	23	mask.bmp	blankscreen.bmp	wfd2.bmp	blankscreen.bmp	square.bmp
405	real_b	real_topleft_diff_b	1	455	23	mask.bmp	blankscreen.bmp	wmd8.bmp	blankscreen.bmp	square.bmp
405	real_b	real_topleft_diff_b	2	431	18	mask.bmp	blankscreen.bmp	wfd7.bmp	blankscreen.bmp	circle.bmp
405	real_b	real_bottomright_same_b	3	521	23	mask.bmp	blankscreen.bmp	wfd10.bmp	blankscreen.bmp	square.bmp
405	real_b	real_bottomright_diff_b	4	606	18	mask.bmp	blankscreen.bmp	wfn8.bmp	blankscreen.bmp	circle.bmp
405	real_b	real_topleft_same_b	5	552	18	mask.bmp	blankscreen.bmp	wmn9.bmp	blankscreen.bmp	circle.bmp
405	real_b	real_topright_same_b	6	372	18	mask.bmp	blankscreen.bmp	wmn10.bmp	blankscreen.bmp	circle.bmp
405	real_b	real_bottomleft_same_b	7	567	23	mask.bmp	blankscreen.bmp	wmd10.bmp	blankscreen.bmp	square.bmp
405	real_b	real_bottomleft_diff_b	8	483	23	mask.bmp	blankscreen.bmp	wmn8.bmp	blankscreen.bmp	square.bmp
405	real_b	real_topright_diff_b	9	401	23	mask.bmp	blankscreen.bmp	wmn7.bmp	blankscreen.bmp	square.bmp
405	real_b	real_bottomright_diff_b	10	451	18	mask.bmp	blankscreen.bmp	wmd7.bmp	blankscreen.bmp	circle.bmp
405	real_b	real_topleft_diff_b	11	475	18	mask.bmp	blankscreen.bmp	wmn6.bmp	blankscreen.bmp	circle.bmp
405	real_b	real_bottomleft_diff_b	12	347	23	mask.bmp	blankscreen.bmp	wfn7.bmp	blankscreen.bmp	circle.bmp
405	real_b	real_topright_same_b	13	487	18	mask.bmp	blankscreen.bmp	wfn9.bmp	blankscreen.bmp	circle.bmp
405	real_b	real_topright_diff_b	14	541	18	mask.bmp	blankscreen.bmp	wfn6.bmp	blankscreen.bmp	circle.bmp
405	real_b	real_bottomright_diff_b	15	450	18	mask.bmp	blankscreen.bmp	wfd6.bmp	blankscreen.bmp	circle.bmp
405	real_b	real_bottomleft_diff_b	16	490	18	mask.bmp	blankscreen.bmp	wmd6.bmp	blankscreen.bmp	circle.bmp
405	real_b	real_bottomright_same_b	17	473	23	mask.bmp	blankscreen.bmp	wfn10.bmp	blankscreen.bmp	square.bmp
405	real_b	real_topright_diff_b	18	465	18	mask.bmp	blankscreen.bmp	wfd8.bmp	blankscreen.bmp	circle.bmp
405	real_b	real_bottomleft_same_b	19	384	23	mask.bmp	blankscreen.bmp	wfd9.bmp	blankscreen.bmp	square.bmp
405	real_b	real_topleft_same_b	20	419	18	mask.bmp	blankscreen.bmp	wmd9.bmp	blankscreen.bmp	circle.bmp
405	real_c	real_bottomleft_diff_c	1	580	23	mask.bmp	blankscreen.bmp	wmd5.bmp	blankscreen.bmp	square.bmp
405	real_c	real_bottomright_diff_c	2	375	18	mask.bmp	blankscreen.bmp	wfd5.bmp	blankscreen.bmp	circle.bmp
405	real_c	real_bottomleft_same_c	3	290	23	mask.bmp	blankscreen.bmp	wmn1.bmp	blankscreen.bmp	square.bmp
405	real_c	real_topright_diff_c	4	409	18	mask.bmp	blankscreen.bmp	wmn3.bmp	blankscreen.bmp	circle.bmp
405	real_c	real_bottomright_same_c	5	387	18	mask.bmp	blankscreen.bmp	wmd2.bmp	blankscreen.bmp	square.bmp
405	real_c	real_topleft_diff_c	6	445	23	mask.bmp	blankscreen.bmp	wfd3.bmp	blankscreen.bmp	circle.bmp
405	real_c	real_topleft_same_c	7	510	18	mask.bmp	blankscreen.bmp	wfd1.bmp	blankscreen.bmp	circle.bmp
405	real_c	real_topright_same_c	8	444	18	mask.bmp	blankscreen.bmp	wfn2.bmp	blankscreen.bmp	circle.bmp
405	real_c	real_topright_diff_c	9	525	23	mask.bmp	blankscreen.bmp	wfn5.bmp	blankscreen.bmp	square.bmp
405	real_c	real_topleft_diff_c	10	521	18	mask.bmp	blankscreen.bmp	wfn4.bmp	blankscreen.bmp	circle.bmp
405	real_c	real_bottomright_diff_c	11	519	23	mask.bmp	blankscreen.bmp	wmd3.bmp	blankscreen.bmp	square.bmp
405	real_c	real_bottomright_diff_c	12	492	18	mask.bmp	blankscreen.bmp	wmn4.bmp	blankscreen.bmp	circle.bmp
405	real_c	real_topright_same_c	13	475	18	mask.bmp	blankscreen.bmp	wmd1.bmp	blankscreen.bmp	square.bmp
405	real_c	real_bottomleft_diff_c	14	802	18	mask.bmp	blankscreen.bmp	wfd4.bmp	blankscreen.bmp	square.bmp
405	real_c	real_bottomleft_diff_c	15	604	18	mask.bmp	blankscreen.bmp	wfn3.bmp	blankscreen.bmp	circle.bmp
405	real_c	real_topleft_same_c	16	343	23	mask.bmp	blankscreen.bmp	wfn1.bmp	blankscreen.bmp	square.bmp
405	real_c	real_bottomright_same_c	17	475	23	mask.bmp	blankscreen.bmp	wmn2.bmp	blankscreen.bmp	square.bmp
405	real_c	real_topright_diff_c	18	483	18	mask.bmp	blankscreen.bmp	wmd4.bmp	blankscreen.bmp	circle.bmp
405	real_c	real_bottomleft_same_c	19	450	18	mask.bmp	blankscreen.bmp	wfd2.bmp	blankscreen.bmp	circle.bmp
405	real_c	real_topleft_diff_c	20	450	18	mask.bmp	blankscreen.bmp	wmn5.bmp	blankscreen.bmp	circle.bmp
405	real_d	real_bottomleft_diff_d	1	785	23	mask.bmp	blankscreen.bmp	wmd8.bmp	blankscreen.bmp	square.bmp
405	real_d	real_topleft_diff_d	2	412	23	mask.bmp	blankscreen.bmp	wfn10.bmp	blankscreen.bmp	square.bmp
405	real_d	real_topleft_same_d	3	382	23	mask.bmp	blankscreen.bmp	wmd6.bmp	blankscreen.bmp	square.bmp
405	real_d	real_bottomright_diff_d	4	433	18	mask.bmp	blankscreen.bmp	wfd8.bmp	blankscreen.bmp	circle.bmp
405	real_d	real_topright_same_d	5	361	23	mask.bmp	blankscreen.bmp	wmd7.bmp	blankscreen.bmp	circle.bmp
405	real_d	real_topleft_diff_d	6	565	23	mask.bmp	blankscreen.bmp	wmd9.bmp	blankscreen.bmp	square.bmp
405	real_d	real_topright_same_d	7	545	23	mask.bmp	blankscreen.bmp	wfd6.bmp	blankscreen.bmp	square.bmp
405	real_d	real_bottomright_same_d	8	565	18	mask.bmp	blankscreen.bmp	wfd7.bmp	blankscreen.bmp	square.bmp
405	real_d	real_bottomright_diff_d	9	385	18	mask.bmp	blankscreen.bmp	wfn9.bmp	blankscreen.bmp	circle.bmp
405	real_d	real_bottomleft_same_d	10	499	23	mask.bmp	blankscreen.bmp	wfn6.bmp	blankscreen.bmp	circle.bmp
405	real_d	real_bottomleft_same_d	11	593	18	mask.bmp	blankscreen.bmp	wmn7.bmp	blankscreen.bmp	circle.bmp
405	real_d	real_bottomright_diff_d	12	476	18	mask.bmp	blankscreen.bmp	wmn10.bmp	blankscreen.bmp	circle.bmp
405	real_d	real_bottomleft_diff_d	13	411	18	mask.bmp	blankscreen.bmp	wfd10.bmp	blankscreen.bmp	circle.bmp
405	real_d	real_topleft_same_d	14	437	23	mask.bmp	blankscreen.bmp	wmn6.bmp	blankscreen.bmp	square.bmp
405	real_d	real_topleft_diff_d	15	534	23	mask.bmp	blankscreen.bmp	wmn8.bmp	blankscreen.bmp	square.bmp
405	real_d	real_topright_diff_d	16	499	23	mask.bmp	blankscreen.bmp	wfn8.bmp	blankscreen.bmp	square.bmp
405	real_d	real_bottomleft_diff_d	17	673	18	mask.bmp	blankscreen.bmp	wmn9.bmp	blankscreen.bmp	circle.bmp
405	real_d	real_topright_diff_d	18	545	23	mask.bmp	blankscreen.bmp	wmd10.bmp	blankscreen.bmp	square.bmp
405	real_d	real_topright_diff_d	19	557	23	mask.bmp	blankscreen.bmp	wfd9.bmp	blankscreen.bmp	square.bmp
405	real_d	real_bottomright_same_d	20	377	23	mask.bmp	blankscreen.bmp	wfn7.bmp	blankscreen.bmp	square.bmp
411	practice	practice_bottomleft_diff	1	2267	18	mask.bmp	blankscreen.bmp	practice11.jpg	blankscreen.bmp	circle.bmp
411	practice	practice_bottomright_diff	2	441	18	mask.bmp	blankscreen.bmp	practice12.jpg	blankscreen.bmp	circle.bmp
411	practice	practice_bottomright_same	3	536	23	mask.bmp	blankscreen.bmp	practice7.jpg	blankscreen.bmp	square.bmp
411	practice	practice_topleft_same	4	531	23	mask.bmp	blankscreen.bmp	practice2.jpg	blankscreen.bmp	square.bmp
411	practice	practice_topleft_diff	5	495	18	mask.bmp	blankscreen.bmp	practice9.jpg	blankscreen.bmp	circle.bmp
411	practice	practice_topleft_same	6	709	23	mask.bmp	blankscreen.bmp	practice1.jpg	blankscreen.bmp	square.bmp
411	practice	practice_bottomleft_same	7	505	23	mask.bmp	blankscreen.bmp	practice6.jpg	blankscreen.bmp	square.bmp
411	practice	practice_topright_same	8	694	18	mask.bmp	blankscreen.bmp	practice3.jpg	blankscreen.bmp	circle.bmp
411	practice	practice_bottomright_same	9	467	18	mask.bmp	blankscreen.bmp	practice8.jpg	blankscreen.bmp	circle.bmp
411	practice	practice_topright_diff	10	609	18	mask.bmp	blankscreen.bmp	practice10.jpg	blankscreen.bmp	circle.bmp
411	practice	practice_topright_same	11	490	18	mask.bmp	blankscreen.bmp	practice4.jpg	blankscreen.bmp	circle.bmp
411	practice	practice_bottomleft_same	12	479	23	mask.bmp	blankscreen.bmp	practice5.jpg	blankscreen.bmp	square.bmp
411	real_a	real_topright_diff_a	1	522	23	mask.bmp	blankscreen.bmp	wfd2.bmp	blankscreen.bmp	square.bmp
411	real_a	real_bottomright_same_a	2	519	23	mask.bmp	blankscreen.bmp	wmd5.bmp	blankscreen.bmp	square.bmp
411	real_a	real_topright_diff_a	3	517	23	mask.bmp	blankscreen.bmp	wmn1.bmp	blankscreen.bmp	circle.bmp
411	real_a	real_bottomright_same_a	4	418	18	mask.bmp	blankscreen.bmp	wmn5.bmp	blankscreen.bmp	circle.bmp
411	real_a	real_topleft_same_a	5	547	23	mask.bmp	blankscreen.bmp	wfd4.bmp	blankscreen.bmp	square.bmp
411	real_a	real_topright_same_a	6	623	23	mask.bmp	blankscreen.bmp	wfd5.bmp	blankscreen.bmp	square.bmp
411	real_a	real_bottomright_diff_a	7	529	18	mask.bmp	blankscreen.bmp	wmd1.bmp	blankscreen.bmp	circle.bmp
411	real_a	real_topright_diff_a	8	622	18	mask.bmp	blankscreen.bmp	wmd3.bmp	blankscreen.bmp	circle.bmp
411	real_a	real_topleft_diff_a	9	943	18	mask.bmp	blankscreen.bmp	wmd2.bmp	blankscreen.bmp	circle.bmp
411	real_a	real_bottomleft_same_a	10	692	23	mask.bmp	blankscreen.bmp	wfn5.bmp	blankscreen.bmp	square.bmp
411	real_a	real_bottomleft_diff_a	11	1219	23	mask.bmp	blankscreen.bmp	wfd3.bmp	blankscreen.bmp	square.bmp
411	real_a	real_bottomleft_diff_a	12	484	18	mask.bmp	blankscreen.bmp	wmn2.bmp	blankscreen.bmp	circle.bmp
411	real_a	real_topright_same_a	13	595	18	mask.bmp	blankscreen.bmp	wmn4.bmp	blankscreen.bmp	circle.bmp
411	real_a	real_bottomright_diff_a	14	470	18	mask.bmp	blankscreen.bmp	wmn3.bmp	blankscreen.bmp	circle.bmp
411	real_a	real_bottomright_diff_a	15	470	23	mask.bmp	blankscreen.bmp	wfn2.bmp	blankscreen.bmp	square.bmp
411	real_a	real_bottomleft_same_a	16	541	23	mask.bmp	blankscreen.bmp	wmd4.bmp	blankscreen.bmp	square.bmp
411	real_a	real_topleft_same_a	17	449	18	mask.bmp	blankscreen.bmp	wfn4.bmp	blankscreen.bmp	circle.bmp
411	real_a	real_topleft_diff_a	18	505	23	mask.bmp	blankscreen.bmp	wfn3.bmp	blankscreen.bmp	square.bmp
411	real_a	real_topleft_diff_a	19	463	18	mask.bmp	blankscreen.bmp	wfd1.bmp	blankscreen.bmp	circle.bmp
411	real_a	real_bottomleft_diff_a	20	535	23	mask.bmp	blankscreen.bmp	wfn1.bmp	blankscreen.bmp	square.bmp
411	real_b	real_topleft_same_b	1	428	23	mask.bmp	blankscreen.bmp	wmd9.bmp	blankscreen.bmp	square.bmp
411	real_b	real_bottomright_same_b	2	661	18	mask.bmp	blankscreen.bmp	wfd10.bmp	blankscreen.bmp	circle.bmp
411	real_b	real_topright_diff_b	3	453	18	mask.bmp	blankscreen.bmp	wfn6.bmp	blankscreen.bmp	circle.bmp
411	real_b	real_topright_same_b	4	581	23	mask.bmp	blankscreen.bmp	wfn9.bmp	blankscreen.bmp	square.bmp
411	real_b	real_topright_same_b	5	680	18	mask.bmp	blankscreen.bmp	wmn10.bmp	blankscreen.bmp	circle.bmp
411	real_b	real_bottomright_diff_b	6	535	18	mask.bmp	blankscreen.bmp	wfn8.bmp	blankscreen.bmp	circle.bmp
411	real_b	real_topleft_same_b	7	579	23	mask.bmp	blankscreen.bmp	wmn9.bmp	blankscreen.bmp	square.bmp
411	real_b	real_topright_diff_b	8	623	23	mask.bmp	blankscreen.bmp	wmn7.bmp	blankscreen.bmp	square.bmp
411	real_b	real_topleft_diff_b	9	960	23	mask.bmp	blankscreen.bmp	wfd7.bmp	blankscreen.bmp	square.bmp
411	real_b	real_bottomleft_diff_b	10	284	18	mask.bmp	blankscreen.bmp	wmd6.bmp	blankscreen.bmp	circle.bmp
411	real_b	real_bottomright_diff_b	11	747	23	mask.bmp	blankscreen.bmp	wfd6.bmp	blankscreen.bmp	circle.bmp
411	real_b	real_topright_diff_b	12	543	18	mask.bmp	blankscreen.bmp	wfd8.bmp	blankscreen.bmp	circle.bmp
411	real_b	real_topleft_diff_b	13	427	18	mask.bmp	blankscreen.bmp	wmn6.bmp	blankscreen.bmp	circle.bmp
411	real_b	real_bottomright_same_b	14	501	18	mask.bmp	blankscreen.bmp	wfn10.bmp	blankscreen.bmp	circle.bmp
411	real_b	real_bottomleft_diff_b	15	675	23	mask.bmp	blankscreen.bmp	wmn8.bmp	blankscreen.bmp	square.bmp
411	real_b	real_topleft_diff_b	16	490	18	mask.bmp	blankscreen.bmp	wmd8.bmp	blankscreen.bmp	circle.bmp
411	real_b	real_bottomleft_same_b	17	672	23	mask.bmp	blankscreen.bmp	wfd9.bmp	blankscreen.bmp	square.bmp
411	real_b	real_bottomleft_diff_b	18	631	18	mask.bmp	blankscreen.bmp	wfn7.bmp	blankscreen.bmp	circle.bmp
411	real_b	real_bottomright_diff_b	19	552	18	mask.bmp	blankscreen.bmp	wmd7.bmp	blankscreen.bmp	circle.bmp
411	real_b	real_bottomleft_same_b	20	676	23	mask.bmp	blankscreen.bmp	wmd10.bmp	blankscreen.bmp	square.bmp
411	real_c	real_topleft_diff_c	1	585	18	mask.bmp	blankscreen.bmp	wfn4.bmp	blankscreen.bmp	circle.bmp
411	real_c	real_topleft_same_c	2	492	23	mask.bmp	blankscreen.bmp	wfd1.bmp	blankscreen.bmp	square.bmp
411	real_c	real_topright_diff_c	3	523	18	mask.bmp	blankscreen.bmp	wmd4.bmp	blankscreen.bmp	circle.bmp
411	real_c	real_bottomleft_same_c	4	464	18	mask.bmp	blankscreen.bmp	wmn1.bmp	blankscreen.bmp	circle.bmp
411	real_c	real_bottomright_diff_c	5	544	18	mask.bmp	blankscreen.bmp	wmn4.bmp	blankscreen.bmp	circle.bmp
411	real_c	real_bottomleft_diff_c	6	460	18	mask.bmp	blankscreen.bmp	wfn3.bmp	blankscreen.bmp	circle.bmp
411	real_c	real_topright_diff_c	7	404	18	mask.bmp	blankscreen.bmp	wfn5.bmp	blankscreen.bmp	circle.bmp
411	real_c	real_bottomleft_diff_c	8	494	18	mask.bmp	blankscreen.bmp	wmd5.bmp	blankscreen.bmp	circle.bmp
411	real_c	real_bottomright_same_c	9	581	23	mask.bmp	blankscreen.bmp	wmn2.bmp	blankscreen.bmp	square.bmp
411	real_c	real_bottomright_same_c	10	504	18	mask.bmp	blankscreen.bmp	wmd2.bmp	blankscreen.bmp	circle.bmp
411	real_c	real_topright_same_c	11	518	18	mask.bmp	blankscreen.bmp	wfn2.bmp	blankscreen.bmp	circle.bmp
411	real_c	real_topright_diff_c	12	396	23	mask.bmp	blankscreen.bmp	wmn3.bmp	blankscreen.bmp	square.bmp
411	real_c	real_topleft_same_c	13	438	23	mask.bmp	blankscreen.bmp	wfn1.bmp	blankscreen.bmp	square.bmp
411	real_c	real_bottomleft_diff_c	14	559	23	mask.bmp	blankscreen.bmp	wfd4.bmp	blankscreen.bmp	square.bmp
411	real_c	real_topleft_diff_c	15	475	23	mask.bmp	blankscreen.bmp	wfd3.bmp	blankscreen.bmp	square.bmp
411	real_c	real_topleft_diff_c	16	714	18	mask.bmp	blankscreen.bmp	wmn5.bmp	blankscreen.bmp	circle.bmp
411	real_c	real_bottomright_diff_c	17	504	23	mask.bmp	blankscreen.bmp	wmd3.bmp	blankscreen.bmp	square.bmp
411	real_c	real_bottomleft_same_c	18	390	18	mask.bmp	blankscreen.bmp	wfd2.bmp	blankscreen.bmp	circle.bmp
411	real_c	real_topright_same_c	19	536	23	mask.bmp	blankscreen.bmp	wmd1.bmp	blankscreen.bmp	square.bmp
411	real_c	real_bottomright_diff_c	20	581	18	mask.bmp	blankscreen.bmp	wfd5.bmp	blankscreen.bmp	circle.bmp
411	real_d	real_topleft_diff_d	1	368	18	mask.bmp	blankscreen.bmp	wmd9.bmp	blankscreen.bmp	circle.bmp
411	real_d	real_bottomright_diff_d	2	355	18	mask.bmp	blankscreen.bmp	wfn9.bmp	blankscreen.bmp	circle.bmp
411	real_d	real_topleft_same_d	3	303	18	mask.bmp	blankscreen.bmp	wmd6.bmp	blankscreen.bmp	circle.bmp
411	real_d	real_bottomleft_same_d	4	349	18	mask.bmp	blankscreen.bmp	wmn7.bmp	blankscreen.bmp	square.bmp
411	real_d	real_bottomleft_diff_d	5	506	18	mask.bmp	blankscreen.bmp	wfd10.bmp	blankscreen.bmp	circle.bmp
411	real_d	real_topleft_diff_d	6	528	23	mask.bmp	blankscreen.bmp	wmn8.bmp	blankscreen.bmp	square.bmp
411	real_d	real_bottomright_same_d	7	533	23	mask.bmp	blankscreen.bmp	wfd7.bmp	blankscreen.bmp	square.bmp
411	real_d	real_bottomleft_diff_d	8	442	23	mask.bmp	blankscreen.bmp	wmn9.bmp	blankscreen.bmp	square.bmp
411	real_d	real_topright_same_d	9	498	23	mask.bmp	blankscreen.bmp	wfd6.bmp	blankscreen.bmp	square.bmp
411	real_d	real_bottomleft_same_d	10	344	23	mask.bmp	blankscreen.bmp	wfn6.bmp	blankscreen.bmp	square.bmp
411	real_d	real_bottomright_same_d	11	436	18	mask.bmp	blankscreen.bmp	wfn7.bmp	blankscreen.bmp	circle.bmp
411	real_d	real_topright_diff_d	12	589	23	mask.bmp	blankscreen.bmp	wfn8.bmp	blankscreen.bmp	square.bmp
411	real_d	real_bottomright_diff_d	13	536	18	mask.bmp	blankscreen.bmp	wmn10.bmp	blankscreen.bmp	circle.bmp
411	real_d	real_topright_same_d	14	812	18	mask.bmp	blankscreen.bmp	wmd7.bmp	blankscreen.bmp	circle.bmp
411	real_d	real_bottomright_diff_d	15	598	23	mask.bmp	blankscreen.bmp	wfd8.bmp	blankscreen.bmp	square.bmp
411	real_d	real_bottomleft_diff_d	16	528	23	mask.bmp	blankscreen.bmp	wmd8.bmp	blankscreen.bmp	square.bmp
411	real_d	real_topright_diff_d	17	710	18	mask.bmp	blankscreen.bmp	wmd10.bmp	blankscreen.bmp	circle.bmp
411	real_d	real_topright_diff_d	18	467	18	mask.bmp	blankscreen.bmp	wfd9.bmp	blankscreen.bmp	circle.bmp
411	real_d	real_topleft_same_d	19	594	18	mask.bmp	blankscreen.bmp	wmn6.bmp	blankscreen.bmp	circle.bmp
411	real_d	real_topleft_diff_d	20	517	23	mask.bmp	blankscreen.bmp	wfn10.bmp	blankscreen.bmp	square.bmp
412	practice	practice_topleft_same	1	1556	23	mask.bmp	blankscreen.bmp	practice1.jpg	blankscreen.bmp	square.bmp
412	practice	practice_bottomleft_same	2	95	23	mask.bmp	blankscreen.bmp	practice6.jpg	blankscreen.bmp	circle.bmp
412	practice	practice_bottomright_diff	3	580	23	mask.bmp	blankscreen.bmp	practice12.jpg	blankscreen.bmp	square.bmp
412	practice	practice_bottomleft_same	4	582	18	mask.bmp	blankscreen.bmp	practice5.jpg	blankscreen.bmp	circle.bmp
412	practice	practice_topright_same	5	728	18	mask.bmp	blankscreen.bmp	practice4.jpg	blankscreen.bmp	circle.bmp
412	practice	practice_topleft_diff	6	796	23	mask.bmp	blankscreen.bmp	practice9.jpg	blankscreen.bmp	circle.bmp
412	practice	practice_topright_same	7	662	18	mask.bmp	blankscreen.bmp	practice3.jpg	blankscreen.bmp	circle.bmp
412	practice	practice_bottomright_same	8	484	18	mask.bmp	blankscreen.bmp	practice8.jpg	blankscreen.bmp	circle.bmp
412	practice	practice_topleft_same	9	658	23	mask.bmp	blankscreen.bmp	practice2.jpg	blankscreen.bmp	square.bmp
412	practice	practice_bottomleft_diff	10	816	18	mask.bmp	blankscreen.bmp	practice11.jpg	blankscreen.bmp	circle.bmp
412	practice	practice_topright_diff	11	825	23	mask.bmp	blankscreen.bmp	practice10.jpg	blankscreen.bmp	square.bmp
412	practice	practice_bottomright_same	12	825	23	mask.bmp	blankscreen.bmp	practice7.jpg	blankscreen.bmp	square.bmp
412	real_a	real_topright_same_a	1	1665	18	mask.bmp	blankscreen.bmp	wfd5.bmp	blankscreen.bmp	square.bmp
412	real_a	real_bottomright_diff_a	2	1720	18	mask.bmp	blankscreen.bmp	wfn2.bmp	blankscreen.bmp	circle.bmp
412	real_a	real_bottomright_diff_a	3	1462	23	mask.bmp	blankscreen.bmp	wmd1.bmp	blankscreen.bmp	square.bmp
412	real_a	real_bottomleft_same_a	4	845	23	mask.bmp	blankscreen.bmp	wmd4.bmp	blankscreen.bmp	circle.bmp
412	real_a	real_bottomleft_diff_a	5	1279	23	mask.bmp	blankscreen.bmp	wfn1.bmp	blankscreen.bmp	square.bmp
412	real_a	real_topright_diff_a	6	1253	18	mask.bmp	blankscreen.bmp	wmn1.bmp	blankscreen.bmp	circle.bmp
412	real_a	real_bottomleft_diff_a	7	1269	18	mask.bmp	blankscreen.bmp	wfd3.bmp	blankscreen.bmp	circle.bmp
412	real_a	real_topleft_same_a	8	764	18	mask.bmp	blankscreen.bmp	wfn4.bmp	blankscreen.bmp	circle.bmp
412	real_a	real_bottomleft_diff_a	9	721	18	mask.bmp	blankscreen.bmp	wmn2.bmp	blankscreen.bmp	circle.bmp
412	real_a	real_topleft_diff_a	10	934	23	mask.bmp	blankscreen.bmp	wfd1.bmp	blankscreen.bmp	square.bmp
412	real_a	real_bottomright_same_a	11	667	23	mask.bmp	blankscreen.bmp	wmd5.bmp	blankscreen.bmp	square.bmp
412	real_a	real_topleft_same_a	12	754	18	mask.bmp	blankscreen.bmp	wfd4.bmp	blankscreen.bmp	circle.bmp
412	real_a	real_topright_diff_a	13	862	18	mask.bmp	blankscreen.bmp	wmd3.bmp	blankscreen.bmp	circle.bmp
412	real_a	real_bottomright_same_a	14	813	18	mask.bmp	blankscreen.bmp	wmn5.bmp	blankscreen.bmp	circle.bmp
412	real_a	real_topright_diff_a	15	639	23	mask.bmp	blankscreen.bmp	wfd2.bmp	blankscreen.bmp	square.bmp
412	real_a	real_bottomleft_same_a	16	664	23	mask.bmp	blankscreen.bmp	wfn5.bmp	blankscreen.bmp	square.bmp
412	real_a	real_bottomright_diff_a	17	784	23	mask.bmp	blankscreen.bmp	wmn3.bmp	blankscreen.bmp	square.bmp
412	real_a	real_topleft_diff_a	18	795	18	mask.bmp	blankscreen.bmp	wfn3.bmp	blankscreen.bmp	circle.bmp
412	real_a	real_topleft_diff_a	19	638	23	mask.bmp	blankscreen.bmp	wmd2.bmp	blankscreen.bmp	square.bmp
412	real_a	real_topright_same_a	20	567	18	mask.bmp	blankscreen.bmp	wmn4.bmp	blankscreen.bmp	circle.bmp
412	real_b	real_bottomright_same_b	1	1139	23	mask.bmp	blankscreen.bmp	wfn10.bmp	blankscreen.bmp	square.bmp
412	real_b	real_topright_same_b	2	631	18	mask.bmp	blankscreen.bmp	wfn9.bmp	blankscreen.bmp	circle.bmp
412	real_b	real_topright_diff_b	3	688	18	mask.bmp	blankscreen.bmp	wfd8.bmp	blankscreen.bmp	circle.bmp
412	real_b	real_topleft_same_b	4	647	23	mask.bmp	blankscreen.bmp	wmd9.bmp	blankscreen.bmp	square.bmp
412	real_b	real_bottomleft_diff_b	5	687	18	mask.bmp	blankscreen.bmp	wmd6.bmp	blankscreen.bmp	circle.bmp
412	real_b	real_topleft_diff_b	6	566	18	mask.bmp	blankscreen.bmp	wmd8.bmp	blankscreen.bmp	circle.bmp
412	real_b	real_bottomright_diff_b	7	649	23	mask.bmp	blankscreen.bmp	wfn8.bmp	blankscreen.bmp	square.bmp
412	real_b	real_bottomleft_same_b	8	793	23	mask.bmp	blankscreen.bmp	wmd10.bmp	blankscreen.bmp	square.bmp
412	real_b	real_topright_diff_b	9	580	23	mask.bmp	blankscreen.bmp	wmn7.bmp	blankscreen.bmp	square.bmp
412	real_b	real_bottomright_diff_b	10	687	18	mask.bmp	blankscreen.bmp	wmd7.bmp	blankscreen.bmp	circle.bmp
412	real_b	real_bottomleft_diff_b	11	534	23	mask.bmp	blankscreen.bmp	wfn7.bmp	blankscreen.bmp	square.bmp
412	real_b	real_topright_diff_b	12	779	23	mask.bmp	blankscreen.bmp	wfn6.bmp	blankscreen.bmp	square.bmp
412	real_b	real_bottomleft_same_b	13	829	18	mask.bmp	blankscreen.bmp	wfd9.bmp	blankscreen.bmp	circle.bmp
412	real_b	real_topleft_diff_b	14	719	18	mask.bmp	blankscreen.bmp	wmn6.bmp	blankscreen.bmp	circle.bmp
412	real_b	real_bottomright_same_b	15	660	23	mask.bmp	blankscreen.bmp	wfd10.bmp	blankscreen.bmp	square.bmp
412	real_b	real_bottomright_diff_b	16	780	23	mask.bmp	blankscreen.bmp	wfd6.bmp	blankscreen.bmp	square.bmp
412	real_b	real_bottomleft_diff_b	17	783	23	mask.bmp	blankscreen.bmp	wmn8.bmp	blankscreen.bmp	square.bmp
412	real_b	real_topleft_diff_b	18	737	18	mask.bmp	blankscreen.bmp	wfd7.bmp	blankscreen.bmp	circle.bmp
412	real_b	real_topleft_same_b	19	590	23	mask.bmp	blankscreen.bmp	wmn9.bmp	blankscreen.bmp	square.bmp
412	real_b	real_topright_same_b	20	625	23	mask.bmp	blankscreen.bmp	wmn10.bmp	blankscreen.bmp	square.bmp
412	real_c	real_topleft_diff_c	1	1233	23	mask.bmp	blankscreen.bmp	wfd3.bmp	blankscreen.bmp	circle.bmp
412	real_c	real_bottomleft_same_c	2	1203	23	mask.bmp	blankscreen.bmp	wfd2.bmp	blankscreen.bmp	square.bmp
412	real_c	real_topleft_same_c	3	541	18	mask.bmp	blankscreen.bmp	wfd1.bmp	blankscreen.bmp	circle.bmp
412	real_c	real_topleft_diff_c	4	793	23	mask.bmp	blankscreen.bmp	wmn5.bmp	blankscreen.bmp	square.bmp
412	real_c	real_topright_diff_c	5	556	18	mask.bmp	blankscreen.bmp	wmd4.bmp	blankscreen.bmp	circle.bmp
412	real_c	real_bottomleft_diff_c	6	552	23	mask.bmp	blankscreen.bmp	wfn3.bmp	blankscreen.bmp	square.bmp
412	real_c	real_bottomleft_diff_c	7	612	18	mask.bmp	blankscreen.bmp	wfd4.bmp	blankscreen.bmp	circle.bmp
412	real_c	real_bottomleft_diff_c	8	589	23	mask.bmp	blankscreen.bmp	wmd5.bmp	blankscreen.bmp	square.bmp
412	real_c	real_bottomright_same_c	9	504	23	mask.bmp	blankscreen.bmp	wmd2.bmp	blankscreen.bmp	square.bmp
412	real_c	real_topleft_same_c	10	486	23	mask.bmp	blankscreen.bmp	wfn1.bmp	blankscreen.bmp	square.bmp
412	real_c	real_topright_diff_c	11	541	18	mask.bmp	blankscreen.bmp	wmn3.bmp	blankscreen.bmp	circle.bmp
412	real_c	real_bottomright_same_c	12	481	23	mask.bmp	blankscreen.bmp	wmn2.bmp	blankscreen.bmp	square.bmp
412	real_c	real_topleft_diff_c	13	640	23	mask.bmp	blankscreen.bmp	wfn4.bmp	blankscreen.bmp	square.bmp
412	real_c	real_bottomright_diff_c	14	761	23	mask.bmp	blankscreen.bmp	wfd5.bmp	blankscreen.bmp	square.bmp
412	real_c	real_topright_same_c	15	525	23	mask.bmp	blankscreen.bmp	wfn2.bmp	blankscreen.bmp	square.bmp
412	real_c	real_topright_diff_c	16	474	18	mask.bmp	blankscreen.bmp	wfn5.bmp	blankscreen.bmp	circle.bmp
412	real_c	real_bottomright_diff_c	17	585	23	mask.bmp	blankscreen.bmp	wmd3.bmp	blankscreen.bmp	square.bmp
412	real_c	real_bottomright_diff_c	18	588	23	mask.bmp	blankscreen.bmp	wmn4.bmp	blankscreen.bmp	square.bmp
412	real_c	real_topright_same_c	19	527	23	mask.bmp	blankscreen.bmp	wmd1.bmp	blankscreen.bmp	square.bmp
412	real_c	real_bottomleft_same_c	20	516	23	mask.bmp	blankscreen.bmp	wmn1.bmp	blankscreen.bmp	square.bmp
412	real_d	real_bottomright_diff_d	1	595	18	mask.bmp	blankscreen.bmp	wmn10.bmp	blankscreen.bmp	circle.bmp
412	real_d	real_topright_diff_d	2	829	18	mask.bmp	blankscreen.bmp	wfn8.bmp	blankscreen.bmp	circle.bmp
412	real_d	real_bottomright_same_d	3	542	23	mask.bmp	blankscreen.bmp	wfd7.bmp	blankscreen.bmp	square.bmp
412	real_d	real_topleft_same_d	4	603	18	mask.bmp	blankscreen.bmp	wmd6.bmp	blankscreen.bmp	circle.bmp
412	real_d	real_topleft_same_d	5	477	23	mask.bmp	blankscreen.bmp	wmn6.bmp	blankscreen.bmp	square.bmp
412	real_d	real_topleft_diff_d	6	452	18	mask.bmp	blankscreen.bmp	wmd9.bmp	blankscreen.bmp	circle.bmp
412	real_d	real_bottomleft_same_d	7	428	23	mask.bmp	blankscreen.bmp	wfn6.bmp	blankscreen.bmp	square.bmp
412	real_d	real_topleft_diff_d	8	813	23	mask.bmp	blankscreen.bmp	wmn8.bmp	blankscreen.bmp	square.bmp
412	real_d	real_bottomleft_same_d	9	743	23	mask.bmp	blankscreen.bmp	wmn7.bmp	blankscreen.bmp	square.bmp
412	real_d	real_topright_diff_d	10	611	23	mask.bmp	blankscreen.bmp	wfd9.bmp	blankscreen.bmp	square.bmp
412	real_d	real_topright_same_d	11	541	23	mask.bmp	blankscreen.bmp	wfd6.bmp	blankscreen.bmp	square.bmp
412	real_d	real_bottomright_diff_d	12	562	18	mask.bmp	blankscreen.bmp	wfd8.bmp	blankscreen.bmp	circle.bmp
412	real_d	real_topright_same_d	13	574	18	mask.bmp	blankscreen.bmp	wmd7.bmp	blankscreen.bmp	circle.bmp
412	real_d	real_topleft_diff_d	14	473	18	mask.bmp	blankscreen.bmp	wfn10.bmp	blankscreen.bmp	circle.bmp
412	real_d	real_bottomleft_diff_d	15	569	23	mask.bmp	blankscreen.bmp	wmn9.bmp	blankscreen.bmp	square.bmp
412	real_d	real_bottomright_same_d	16	572	18	mask.bmp	blankscreen.bmp	wfn7.bmp	blankscreen.bmp	circle.bmp
412	real_d	real_bottomleft_diff_d	17	543	23	mask.bmp	blankscreen.bmp	wfd10.bmp	blankscreen.bmp	square.bmp
412	real_d	real_bottomleft_diff_d	18	820	18	mask.bmp	blankscreen.bmp	wmd8.bmp	blankscreen.bmp	circle.bmp
412	real_d	real_topright_diff_d	19	733	18	mask.bmp	blankscreen.bmp	wmd10.bmp	blankscreen.bmp	circle.bmp
412	real_d	real_bottomright_diff_d	20	506	18	mask.bmp	blankscreen.bmp	wfn9.bmp	blankscreen.bmp	circle.bmp
415	practice	practice_bottomleft_same	1	1480	18	mask.bmp	blankscreen.bmp	practice6.jpg	blankscreen.bmp	circle.bmp
415	practice	practice_topright_same	2	166	18	mask.bmp	blankscreen.bmp	practice4.jpg	blankscreen.bmp	square.bmp
415	practice	practice_bottomleft_diff	3	2345	23	mask.bmp	blankscreen.bmp	practice11.jpg	blankscreen.bmp	square.bmp
415	practice	practice_bottomright_diff	4	636	18	mask.bmp	blankscreen.bmp	practice12.jpg	blankscreen.bmp	circle.bmp
415	practice	practice_topright_same	5	980	23	mask.bmp	blankscreen.bmp	practice3.jpg	blankscreen.bmp	square.bmp
415	practice	practice_topleft_same	6	390	23	mask.bmp	blankscreen.bmp	practice2.jpg	blankscreen.bmp	square.bmp
415	practice	practice_topright_diff	7	695	18	mask.bmp	blankscreen.bmp	practice10.jpg	blankscreen.bmp	circle.bmp
415	practice	practice_bottomright_same	8	316	23	mask.bmp	blankscreen.bmp	practice8.jpg	blankscreen.bmp	square.bmp
415	practice	practice_topleft_same	9	217	18	mask.bmp	blankscreen.bmp	practice1.jpg	blankscreen.bmp	circle.bmp
415	practice	practice_bottomleft_same	10	409	23	mask.bmp	blankscreen.bmp	practice5.jpg	blankscreen.bmp	square.bmp
415	practice	practice_topleft_diff	11	706	23	mask.bmp	blankscreen.bmp	practice9.jpg	blankscreen.bmp	square.bmp
415	practice	practice_bottomright_same	12	599	18	mask.bmp	blankscreen.bmp	practice7.jpg	blankscreen.bmp	circle.bmp
415	real_a	real_topleft_same_a	1	758	18	mask.bmp	blankscreen.bmp	wfd4.bmp	blankscreen.bmp	circle.bmp
415	real_a	real_topright_diff_a	2	762	23	mask.bmp	blankscreen.bmp	wmn1.bmp	blankscreen.bmp	square.bmp
415	real_a	real_topleft_diff_a	3	526	18	mask.bmp	blankscreen.bmp	wfn3.bmp	blankscreen.bmp	circle.bmp
415	real_a	real_bottomleft_same_a	4	299	23	mask.bmp	blankscreen.bmp	wmd4.bmp	blankscreen.bmp	square.bmp
415	real_a	real_topleft_diff_a	5	738	23	mask.bmp	blankscreen.bmp	wmd2.bmp	blankscreen.bmp	square.bmp
415	real_a	real_bottomright_diff_a	6	398	18	mask.bmp	blankscreen.bmp	wfn2.bmp	blankscreen.bmp	square.bmp
415	real_a	real_bottomright_same_a	7	456	18	mask.bmp	blankscreen.bmp	wmd5.bmp	blankscreen.bmp	circle.bmp
415	real_a	real_bottomleft_diff_a	8	536	23	mask.bmp	blankscreen.bmp	wmn2.bmp	blankscreen.bmp	square.bmp
415	real_a	real_topright_diff_a	9	581	18	mask.bmp	blankscreen.bmp	wfd2.bmp	blankscreen.bmp	circle.bmp
415	real_a	real_bottomright_same_a	10	296	23	mask.bmp	blankscreen.bmp	wmn5.bmp	blankscreen.bmp	square.bmp
415	real_a	real_bottomright_diff_a	11	878	23	mask.bmp	blankscreen.bmp	wmd1.bmp	blankscreen.bmp	square.bmp
415	real_a	real_topleft_diff_a	12	358	23	mask.bmp	blankscreen.bmp	wfd1.bmp	blankscreen.bmp	circle.bmp
415	real_a	real_bottomright_diff_a	13	698	23	mask.bmp	blankscreen.bmp	wmn3.bmp	blankscreen.bmp	square.bmp
415	real_a	real_bottomleft_diff_a	14	624	23	mask.bmp	blankscreen.bmp	wfd3.bmp	blankscreen.bmp	square.bmp
415	real_a	real_topright_same_a	15	577	18	mask.bmp	blankscreen.bmp	wfd5.bmp	blankscreen.bmp	square.bmp
415	real_a	real_bottomleft_diff_a	16	436	18	mask.bmp	blankscreen.bmp	wfn1.bmp	blankscreen.bmp	circle.bmp
415	real_a	real_bottomleft_same_a	17	597	18	mask.bmp	blankscreen.bmp	wfn5.bmp	blankscreen.bmp	circle.bmp
415	real_a	real_topright_diff_a	18	759	23	mask.bmp	blankscreen.bmp	wmd3.bmp	blankscreen.bmp	circle.bmp
415	real_a	real_topleft_same_a	19	482	23	mask.bmp	blankscreen.bmp	wfn4.bmp	blankscreen.bmp	square.bmp
415	real_a	real_topright_same_a	20	481	18	mask.bmp	blankscreen.bmp	wmn4.bmp	blankscreen.bmp	circle.bmp
415	real_b	real_bottomleft_same_b	1	522	18	mask.bmp	blankscreen.bmp	wmd10.bmp	blankscreen.bmp	circle.bmp
415	real_b	real_bottomleft_diff_b	2	528	18	mask.bmp	blankscreen.bmp	wfn7.bmp	blankscreen.bmp	circle.bmp
415	real_b	real_bottomright_same_b	3	349	23	mask.bmp	blankscreen.bmp	wfn10.bmp	blankscreen.bmp	square.bmp
415	real_b	real_topright_same_b	4	417	23	mask.bmp	blankscreen.bmp	wmn10.bmp	blankscreen.bmp	square.bmp
415	real_b	real_bottomleft_same_b	5	402	23	mask.bmp	blankscreen.bmp	wfd9.bmp	blankscreen.bmp	square.bmp
415	real_b	real_topleft_diff_b	6	660	18	mask.bmp	blankscreen.bmp	wfd7.bmp	blankscreen.bmp	circle.bmp
415	real_b	real_topleft_same_b	7	564	23	mask.bmp	blankscreen.bmp	wmn9.bmp	blankscreen.bmp	square.bmp
415	real_b	real_bottomright_same_b	8	712	23	mask.bmp	blankscreen.bmp	wfd10.bmp	blankscreen.bmp	square.bmp
415	real_b	real_topright_same_b	9	486	18	mask.bmp	blankscreen.bmp	wfn9.bmp	blankscreen.bmp	circle.bmp
415	real_b	real_topright_diff_b	10	860	23	mask.bmp	blankscreen.bmp	wfd8.bmp	blankscreen.bmp	circle.bmp
415	real_b	real_topleft_diff_b	11	644	18	mask.bmp	blankscreen.bmp	wmn6.bmp	blankscreen.bmp	circle.bmp
415	real_b	real_topleft_diff_b	12	717	23	mask.bmp	blankscreen.bmp	wmd8.bmp	blankscreen.bmp	square.bmp
415	real_b	real_bottomleft_diff_b	13	538	18	mask.bmp	blankscreen.bmp	wmn8.bmp	blankscreen.bmp	circle.bmp
415	real_b	real_topright_diff_b	14	487	18	mask.bmp	blankscreen.bmp	wmn7.bmp	blankscreen.bmp	circle.bmp
415	real_b	real_bottomleft_diff_b	15	478	23	mask.bmp	blankscreen.bmp	wmd6.bmp	blankscreen.bmp	square.bmp
415	real_b	real_topright_diff_b	16	581	23	mask.bmp	blankscreen.bmp	wfn6.bmp	blankscreen.bmp	square.bmp
415	real_b	real_bottomright_diff_b	17	560	18	mask.bmp	blankscreen.bmp	wmd7.bmp	blankscreen.bmp	circle.bmp
415	real_b	real_bottomright_diff_b	18	596	18	mask.bmp	blankscreen.bmp	wfd6.bmp	blankscreen.bmp	circle.bmp
415	real_b	real_topleft_same_b	19	486	23	mask.bmp	blankscreen.bmp	wmd9.bmp	blankscreen.bmp	square.bmp
415	real_b	real_bottomright_diff_b	20	597	23	mask.bmp	blankscreen.bmp	wfn8.bmp	blankscreen.bmp	square.bmp
415	real_c	real_bottomleft_diff_c	1	501	18	mask.bmp	blankscreen.bmp	wfd4.bmp	blankscreen.bmp	circle.bmp
415	real_c	real_topright_same_c	2	547	18	mask.bmp	blankscreen.bmp	wmd1.bmp	blankscreen.bmp	circle.bmp
415	real_c	real_bottomright_diff_c	3	463	23	mask.bmp	blankscreen.bmp	wmd3.bmp	blankscreen.bmp	square.bmp
415	real_c	real_topright_diff_c	4	534	23	mask.bmp	blankscreen.bmp	wfn5.bmp	blankscreen.bmp	square.bmp
415	real_c	real_bottomleft_diff_c	5	603	18	mask.bmp	blankscreen.bmp	wmd5.bmp	blankscreen.bmp	circle.bmp
415	real_c	real_topleft_same_c	6	509	23	mask.bmp	blankscreen.bmp	wfn1.bmp	blankscreen.bmp	square.bmp
415	real_c	real_topright_same_c	7	587	23	mask.bmp	blankscreen.bmp	wfn2.bmp	blankscreen.bmp	square.bmp
415	real_c	real_topleft_diff_c	8	654	18	mask.bmp	blankscreen.bmp	wfn4.bmp	blankscreen.bmp	circle.bmp
415	real_c	real_bottomright_diff_c	9	638	23	mask.bmp	blankscreen.bmp	wmn4.bmp	blankscreen.bmp	square.bmp
415	real_c	real_topright_diff_c	10	535	23	mask.bmp	blankscreen.bmp	wmd4.bmp	blankscreen.bmp	square.bmp
415	real_c	real_bottomleft_diff_c	11	564	18	mask.bmp	blankscreen.bmp	wfn3.bmp	blankscreen.bmp	circle.bmp
415	real_c	real_bottomright_same_c	12	488	23	mask.bmp	blankscreen.bmp	wmn2.bmp	blankscreen.bmp	square.bmp
415	real_c	real_bottomleft_same_c	13	415	23	mask.bmp	blankscreen.bmp	wmn1.bmp	blankscreen.bmp	circle.bmp
415	real_c	real_bottomleft_same_c	14	457	23	mask.bmp	blankscreen.bmp	wfd2.bmp	blankscreen.bmp	square.bmp
415	real_c	real_topleft_same_c	15	489	23	mask.bmp	blankscreen.bmp	wfd1.bmp	blankscreen.bmp	square.bmp
415	real_c	real_bottomright_diff_c	16	575	23	mask.bmp	blankscreen.bmp	wfd5.bmp	blankscreen.bmp	square.bmp
415	real_c	real_topleft_diff_c	17	563	23	mask.bmp	blankscreen.bmp	wfd3.bmp	blankscreen.bmp	square.bmp
415	real_c	real_bottomright_same_c	18	455	18	mask.bmp	blankscreen.bmp	wmd2.bmp	blankscreen.bmp	circle.bmp
415	real_c	real_topleft_diff_c	19	439	23	mask.bmp	blankscreen.bmp	wmn5.bmp	blankscreen.bmp	square.bmp
415	real_c	real_topright_diff_c	20	495	23	mask.bmp	blankscreen.bmp	wmn3.bmp	blankscreen.bmp	square.bmp
415	real_d	real_topright_same_d	1	505	18	mask.bmp	blankscreen.bmp	wfd6.bmp	blankscreen.bmp	circle.bmp
415	real_d	real_topleft_diff_d	2	535	18	mask.bmp	blankscreen.bmp	wmd9.bmp	blankscreen.bmp	circle.bmp
415	real_d	real_topleft_diff_d	3	468	18	mask.bmp	blankscreen.bmp	wfn10.bmp	blankscreen.bmp	circle.bmp
415	real_d	real_bottomleft_diff_d	4	547	18	mask.bmp	blankscreen.bmp	wmn9.bmp	blankscreen.bmp	circle.bmp
415	real_d	real_topleft_same_d	5	423	23	mask.bmp	blankscreen.bmp	wmn6.bmp	blankscreen.bmp	square.bmp
415	real_d	real_bottomright_same_d	6	481	18	mask.bmp	blankscreen.bmp	wfn7.bmp	blankscreen.bmp	circle.bmp
415	real_d	real_topright_diff_d	7	695	23	mask.bmp	blankscreen.bmp	wfd9.bmp	blankscreen.bmp	square.bmp
415	real_d	real_topleft_diff_d	8	645	23	mask.bmp	blankscreen.bmp	wmn8.bmp	blankscreen.bmp	square.bmp
415	real_d	real_bottomright_diff_d	9	485	23	mask.bmp	blankscreen.bmp	wfn9.bmp	blankscreen.bmp	square.bmp
415	real_d	real_topright_same_d	10	412	18	mask.bmp	blankscreen.bmp	wmd7.bmp	blankscreen.bmp	circle.bmp
415	real_d	real_bottomright_diff_d	11	582	18	mask.bmp	blankscreen.bmp	wmn10.bmp	blankscreen.bmp	circle.bmp
415	real_d	real_bottomright_diff_d	12	473	23	mask.bmp	blankscreen.bmp	wfd8.bmp	blankscreen.bmp	square.bmp
415	real_d	real_bottomleft_diff_d	13	408	23	mask.bmp	blankscreen.bmp	wmd8.bmp	blankscreen.bmp	square.bmp
415	real_d	real_topright_diff_d	14	290	18	mask.bmp	blankscreen.bmp	wfn8.bmp	blankscreen.bmp	circle.bmp
415	real_d	real_bottomleft_diff_d	15	241	18	mask.bmp	blankscreen.bmp	wfd10.bmp	blankscreen.bmp	square.bmp
415	real_d	real_topleft_same_d	16	497	23	mask.bmp	blankscreen.bmp	wmd6.bmp	blankscreen.bmp	circle.bmp
415	real_d	real_topright_diff_d	17	439	23	mask.bmp	blankscreen.bmp	wmd10.bmp	blankscreen.bmp	circle.bmp
415	real_d	real_bottomleft_same_d	18	472	18	mask.bmp	blankscreen.bmp	wmn7.bmp	blankscreen.bmp	circle.bmp
415	real_d	real_bottomleft_same_d	19	535	18	mask.bmp	blankscreen.bmp	wfn6.bmp	blankscreen.bmp	circle.bmp
415	real_d	real_bottomright_same_d	20	412	23	mask.bmp	blankscreen.bmp	wfd7.bmp	blankscreen.bmp	square.bmp
417	practice	practice_topleft_same	1	2540	23	mask.bmp	blankscreen.bmp	practice1.jpg	blankscreen.bmp	square.bmp
417	practice	practice_topright_same	2	567	23	mask.bmp	blankscreen.bmp	practice3.jpg	blankscreen.bmp	square.bmp
417	practice	practice_bottomright_same	3	537	23	mask.bmp	blankscreen.bmp	practice7.jpg	blankscreen.bmp	square.bmp
417	practice	practice_topright_diff	4	837	23	mask.bmp	blankscreen.bmp	practice10.jpg	blankscreen.bmp	square.bmp
417	practice	practice_bottomleft_same	5	548	18	mask.bmp	blankscreen.bmp	practice5.jpg	blankscreen.bmp	circle.bmp
417	practice	practice_bottomright_same	6	496	23	mask.bmp	blankscreen.bmp	practice8.jpg	blankscreen.bmp	square.bmp
417	practice	practice_topright_same	7	589	23	mask.bmp	blankscreen.bmp	practice4.jpg	blankscreen.bmp	square.bmp
417	practice	practice_topleft_diff	8	590	23	mask.bmp	blankscreen.bmp	practice9.jpg	blankscreen.bmp	square.bmp
417	practice	practice_bottomright_diff	9	503	18	mask.bmp	blankscreen.bmp	practice12.jpg	blankscreen.bmp	circle.bmp
417	practice	practice_bottomleft_same	10	524	23	mask.bmp	blankscreen.bmp	practice6.jpg	blankscreen.bmp	square.bmp
417	practice	practice_bottomleft_diff	11	688	18	mask.bmp	blankscreen.bmp	practice11.jpg	blankscreen.bmp	circle.bmp
417	practice	practice_topleft_same	12	638	18	mask.bmp	blankscreen.bmp	practice2.jpg	blankscreen.bmp	circle.bmp
417	real_a	real_bottomright_same_a	1	866	18	mask.bmp	blankscreen.bmp	wmd5.bmp	blankscreen.bmp	circle.bmp
417	real_a	real_bottomleft_diff_a	2	1377	18	mask.bmp	blankscreen.bmp	wmn2.bmp	blankscreen.bmp	circle.bmp
417	real_a	real_bottomleft_diff_a	3	693	18	mask.bmp	blankscreen.bmp	wfn1.bmp	blankscreen.bmp	circle.bmp
417	real_a	real_bottomright_diff_a	4	588	23	mask.bmp	blankscreen.bmp	wmn3.bmp	blankscreen.bmp	square.bmp
417	real_a	real_bottomright_diff_a	5	1070	18	mask.bmp	blankscreen.bmp	wmd1.bmp	blankscreen.bmp	circle.bmp
417	real_a	real_topright_diff_a	6	830	18	mask.bmp	blankscreen.bmp	wmn1.bmp	blankscreen.bmp	circle.bmp
417	real_a	real_topright_same_a	7	542	23	mask.bmp	blankscreen.bmp	wmn4.bmp	blankscreen.bmp	square.bmp
417	real_a	real_topleft_diff_a	8	587	23	mask.bmp	blankscreen.bmp	wfd1.bmp	blankscreen.bmp	square.bmp
417	real_a	real_topright_diff_a	9	645	18	mask.bmp	blankscreen.bmp	wfd2.bmp	blankscreen.bmp	circle.bmp
417	real_a	real_topleft_diff_a	10	734	18	mask.bmp	blankscreen.bmp	wmd2.bmp	blankscreen.bmp	circle.bmp
417	real_a	real_topright_diff_a	11	547	23	mask.bmp	blankscreen.bmp	wmd3.bmp	blankscreen.bmp	square.bmp
417	real_a	real_bottomright_diff_a	12	951	18	mask.bmp	blankscreen.bmp	wfn2.bmp	blankscreen.bmp	circle.bmp
417	real_a	real_bottomleft_diff_a	13	659	18	mask.bmp	blankscreen.bmp	wfd3.bmp	blankscreen.bmp	circle.bmp
417	real_a	real_bottomleft_same_a	14	563	23	mask.bmp	blankscreen.bmp	wfn5.bmp	blankscreen.bmp	square.bmp
417	real_a	real_topleft_same_a	15	1183	18	mask.bmp	blankscreen.bmp	wfn4.bmp	blankscreen.bmp	circle.bmp
417	real_a	real_topleft_diff_a	16	786	18	mask.bmp	blankscreen.bmp	wfn3.bmp	blankscreen.bmp	circle.bmp
417	real_a	real_bottomright_same_a	17	837	23	mask.bmp	blankscreen.bmp	wmn5.bmp	blankscreen.bmp	square.bmp
417	real_a	real_bottomleft_same_a	18	717	18	mask.bmp	blankscreen.bmp	wmd4.bmp	blankscreen.bmp	circle.bmp
417	real_a	real_topleft_same_a	19	843	18	mask.bmp	blankscreen.bmp	wfd4.bmp	blankscreen.bmp	circle.bmp
417	real_a	real_topright_same_a	20	795	18	mask.bmp	blankscreen.bmp	wfd5.bmp	blankscreen.bmp	circle.bmp
417	real_b	real_bottomright_diff_b	1	582	23	mask.bmp	blankscreen.bmp	wfd6.bmp	blankscreen.bmp	square.bmp
417	real_b	real_bottomleft_diff_b	2	625	23	mask.bmp	blankscreen.bmp	wfn7.bmp	blankscreen.bmp	square.bmp
417	real_b	real_bottomleft_diff_b	3	594	23	mask.bmp	blankscreen.bmp	wmn8.bmp	blankscreen.bmp	square.bmp
417	real_b	real_topleft_diff_b	4	509	18	mask.bmp	blankscreen.bmp	wmd8.bmp	blankscreen.bmp	circle.bmp
417	real_b	real_bottomright_same_b	5	987	18	mask.bmp	blankscreen.bmp	wfd10.bmp	blankscreen.bmp	circle.bmp
417	real_b	real_bottomright_diff_b	6	629	23	mask.bmp	blankscreen.bmp	wfn8.bmp	blankscreen.bmp	square.bmp
417	real_b	real_topleft_same_b	7	911	23	mask.bmp	blankscreen.bmp	wmn9.bmp	blankscreen.bmp	square.bmp
417	real_b	real_topleft_same_b	8	605	23	mask.bmp	blankscreen.bmp	wmd9.bmp	blankscreen.bmp	square.bmp
417	real_b	real_bottomleft_same_b	9	679	23	mask.bmp	blankscreen.bmp	wmd10.bmp	blankscreen.bmp	square.bmp
417	real_b	real_topleft_diff_b	10	606	18	mask.bmp	blankscreen.bmp	wmn6.bmp	blankscreen.bmp	circle.bmp
417	real_b	real_bottomright_same_b	11	696	18	mask.bmp	blankscreen.bmp	wfn10.bmp	blankscreen.bmp	circle.bmp
417	real_b	real_topright_diff_b	12	566	23	mask.bmp	blankscreen.bmp	wfn6.bmp	blankscreen.bmp	square.bmp
417	real_b	real_topright_diff_b	13	681	18	mask.bmp	blankscreen.bmp	wfd8.bmp	blankscreen.bmp	circle.bmp
417	real_b	real_topright_same_b	14	520	23	mask.bmp	blankscreen.bmp	wfn9.bmp	blankscreen.bmp	square.bmp
417	real_b	real_topleft_diff_b	15	485	18	mask.bmp	blankscreen.bmp	wfd7.bmp	blankscreen.bmp	circle.bmp
417	real_b	real_topright_diff_b	16	572	18	mask.bmp	blankscreen.bmp	wmn7.bmp	blankscreen.bmp	circle.bmp
417	real_b	real_bottomleft_diff_b	17	575	23	mask.bmp	blankscreen.bmp	wmd6.bmp	blankscreen.bmp	square.bmp
417	real_b	real_bottomleft_same_b	18	922	18	mask.bmp	blankscreen.bmp	wfd9.bmp	blankscreen.bmp	circle.bmp
417	real_b	real_bottomright_diff_b	19	672	23	mask.bmp	blankscreen.bmp	wmd7.bmp	blankscreen.bmp	square.bmp
417	real_b	real_topright_same_b	20	951	18	mask.bmp	blankscreen.bmp	wmn10.bmp	blankscreen.bmp	circle.bmp
417	real_c	real_bottomright_same_c	1	712	23	mask.bmp	blankscreen.bmp	wmd2.bmp	blankscreen.bmp	square.bmp
417	real_c	real_topright_same_c	2	446	18	mask.bmp	blankscreen.bmp	wmd1.bmp	blankscreen.bmp	circle.bmp
417	real_c	real_topleft_diff_c	3	1038	23	mask.bmp	blankscreen.bmp	wfn4.bmp	blankscreen.bmp	square.bmp
417	real_c	real_bottomleft_diff_c	4	687	18	mask.bmp	blankscreen.bmp	wfd4.bmp	blankscreen.bmp	circle.bmp
417	real_c	real_topleft_same_c	5	1205	23	mask.bmp	blankscreen.bmp	wfd1.bmp	blankscreen.bmp	square.bmp
417	real_c	real_bottomright_diff_c	6	799	23	mask.bmp	blankscreen.bmp	wmn4.bmp	blankscreen.bmp	square.bmp
417	real_c	real_topright_diff_c	7	497	18	mask.bmp	blankscreen.bmp	wmd4.bmp	blankscreen.bmp	circle.bmp
417	real_c	real_bottomleft_diff_c	8	615	23	mask.bmp	blankscreen.bmp	wmd5.bmp	blankscreen.bmp	square.bmp
417	real_c	real_topleft_same_c	9	753	18	mask.bmp	blankscreen.bmp	wfn1.bmp	blankscreen.bmp	circle.bmp
417	real_c	real_bottomright_diff_c	10	557	23	mask.bmp	blankscreen.bmp	wfd5.bmp	blankscreen.bmp	square.bmp
417	real_c	real_bottomright_same_c	11	537	23	mask.bmp	blankscreen.bmp	wmn2.bmp	blankscreen.bmp	square.bmp
417	real_c	real_topright_diff_c	12	446	23	mask.bmp	blankscreen.bmp	wmn3.bmp	blankscreen.bmp	square.bmp
417	real_c	real_topleft_diff_c	13	534	18	mask.bmp	blankscreen.bmp	wfd3.bmp	blankscreen.bmp	circle.bmp
417	real_c	real_bottomleft_same_c	14	795	23	mask.bmp	blankscreen.bmp	wmn1.bmp	blankscreen.bmp	square.bmp
417	real_c	real_bottomleft_same_c	15	493	23	mask.bmp	blankscreen.bmp	wfd2.bmp	blankscreen.bmp	square.bmp
417	real_c	real_bottomleft_diff_c	16	500	23	mask.bmp	blankscreen.bmp	wfn3.bmp	blankscreen.bmp	square.bmp
417	real_c	real_topright_same_c	17	603	23	mask.bmp	blankscreen.bmp	wfn2.bmp	blankscreen.bmp	square.bmp
417	real_c	real_topright_diff_c	18	653	23	mask.bmp	blankscreen.bmp	wfn5.bmp	blankscreen.bmp	square.bmp
417	real_c	real_topleft_diff_c	19	533	18	mask.bmp	blankscreen.bmp	wmn5.bmp	blankscreen.bmp	circle.bmp
417	real_c	real_bottomright_diff_c	20	817	18	mask.bmp	blankscreen.bmp	wmd3.bmp	blankscreen.bmp	circle.bmp
417	real_d	real_topright_diff_d	1	863	18	mask.bmp	blankscreen.bmp	wfd9.bmp	blankscreen.bmp	circle.bmp
417	real_d	real_topleft_same_d	2	639	18	mask.bmp	blankscreen.bmp	wmd6.bmp	blankscreen.bmp	circle.bmp
417	real_d	real_bottomright_diff_d	3	959	18	mask.bmp	blankscreen.bmp	wfn9.bmp	blankscreen.bmp	circle.bmp
417	real_d	real_topleft_diff_d	4	651	23	mask.bmp	blankscreen.bmp	wfn10.bmp	blankscreen.bmp	square.bmp
417	real_d	real_bottomleft_diff_d	5	459	23	mask.bmp	blankscreen.bmp	wfd10.bmp	blankscreen.bmp	square.bmp
417	real_d	real_bottomright_same_d	6	611	18	mask.bmp	blankscreen.bmp	wfd7.bmp	blankscreen.bmp	circle.bmp
417	real_d	real_bottomright_diff_d	7	741	23	mask.bmp	blankscreen.bmp	wmn10.bmp	blankscreen.bmp	square.bmp
417	real_d	real_bottomleft_same_d	8	738	18	mask.bmp	blankscreen.bmp	wmn7.bmp	blankscreen.bmp	circle.bmp
417	real_d	real_topright_same_d	9	639	18	mask.bmp	blankscreen.bmp	wmd7.bmp	blankscreen.bmp	circle.bmp
417	real_d	real_topright_diff_d	10	671	18	mask.bmp	blankscreen.bmp	wmd10.bmp	blankscreen.bmp	circle.bmp
417	real_d	real_topleft_diff_d	11	671	23	mask.bmp	blankscreen.bmp	wmn8.bmp	blankscreen.bmp	square.bmp
417	real_d	real_bottomleft_diff_d	12	606	23	mask.bmp	blankscreen.bmp	wmn9.bmp	blankscreen.bmp	circle.bmp
417	real_d	real_topleft_diff_d	13	784	18	mask.bmp	blankscreen.bmp	wmd9.bmp	blankscreen.bmp	circle.bmp
417	real_d	real_topright_same_d	14	651	23	mask.bmp	blankscreen.bmp	wfd6.bmp	blankscreen.bmp	square.bmp
417	real_d	real_bottomright_same_d	15	2387	23	mask.bmp	blankscreen.bmp	wfn7.bmp	blankscreen.bmp	square.bmp
417	real_d	real_bottomleft_same_d	16	733	18	mask.bmp	blankscreen.bmp	wfn6.bmp	blankscreen.bmp	circle.bmp
417	real_d	real_bottomleft_diff_d	17	986	18	mask.bmp	blankscreen.bmp	wmd8.bmp	blankscreen.bmp	circle.bmp
417	real_d	real_topleft_same_d	18	789	23	mask.bmp	blankscreen.bmp	wmn6.bmp	blankscreen.bmp	square.bmp
417	real_d	real_topright_diff_d	19	879	23	mask.bmp	blankscreen.bmp	wfn8.bmp	blankscreen.bmp	square.bmp
417	real_d	real_bottomright_diff_d	20	791	18	mask.bmp	blankscreen.bmp	wfd8.bmp	blankscreen.bmp	circle.bmp
419	practice	practice_bottomleft_diff	1	1604	23	mask.bmp	blankscreen.bmp	practice11.jpg	blankscreen.bmp	square.bmp
419	practice	practice_bottomleft_same	2	812	23	mask.bmp	blankscreen.bmp	practice5.jpg	blankscreen.bmp	square.bmp
419	practice	practice_topleft_same	3	573	18	mask.bmp	blankscreen.bmp	practice2.jpg	blankscreen.bmp	circle.bmp
419	practice	practice_bottomleft_same	4	431	23	mask.bmp	blankscreen.bmp	practice6.jpg	blankscreen.bmp	square.bmp
419	practice	practice_topleft_same	5	535	23	mask.bmp	blankscreen.bmp	practice1.jpg	blankscreen.bmp	square.bmp
419	practice	practice_bottomright_same	6	482	18	mask.bmp	blankscreen.bmp	practice7.jpg	blankscreen.bmp	circle.bmp
419	practice	practice_bottomright_diff	7	880	18	mask.bmp	blankscreen.bmp	practice12.jpg	blankscreen.bmp	circle.bmp
419	practice	practice_topright_same	8	414	23	mask.bmp	blankscreen.bmp	practice3.jpg	blankscreen.bmp	square.bmp
419	practice	practice_bottomright_same	9	391	23	mask.bmp	blankscreen.bmp	practice8.jpg	blankscreen.bmp	square.bmp
419	practice	practice_topright_diff	10	632	23	mask.bmp	blankscreen.bmp	practice10.jpg	blankscreen.bmp	square.bmp
419	practice	practice_topleft_diff	11	424	23	mask.bmp	blankscreen.bmp	practice9.jpg	blankscreen.bmp	square.bmp
419	practice	practice_topright_same	12	432	23	mask.bmp	blankscreen.bmp	practice4.jpg	blankscreen.bmp	square.bmp
419	real_a	real_topright_diff_a	1	702	23	mask.bmp	blankscreen.bmp	wmn1.bmp	blankscreen.bmp	square.bmp
419	real_a	real_bottomleft_diff_a	2	620	23	mask.bmp	blankscreen.bmp	wfn1.bmp	blankscreen.bmp	square.bmp
419	real_a	real_bottomright_same_a	3	549	18	mask.bmp	blankscreen.bmp	wmn5.bmp	blankscreen.bmp	circle.bmp
419	real_a	real_bottomleft_diff_a	4	601	18	mask.bmp	blankscreen.bmp	wfd3.bmp	blankscreen.bmp	circle.bmp
419	real_a	real_bottomright_diff_a	5	515	18	mask.bmp	blankscreen.bmp	wfn2.bmp	blankscreen.bmp	circle.bmp
419	real_a	real_bottomright_diff_a	6	401	23	mask.bmp	blankscreen.bmp	wmd1.bmp	blankscreen.bmp	square.bmp
419	real_a	real_bottomleft_diff_a	7	428	23	mask.bmp	blankscreen.bmp	wmn2.bmp	blankscreen.bmp	square.bmp
419	real_a	real_topright_same_a	8	628	18	mask.bmp	blankscreen.bmp	wfd5.bmp	blankscreen.bmp	circle.bmp
419	real_a	real_topleft_diff_a	9	398	23	mask.bmp	blankscreen.bmp	wfn3.bmp	blankscreen.bmp	square.bmp
419	real_a	real_topleft_same_a	10	528	18	mask.bmp	blankscreen.bmp	wfd4.bmp	blankscreen.bmp	circle.bmp
419	real_a	real_bottomleft_same_a	11	485	23	mask.bmp	blankscreen.bmp	wmd4.bmp	blankscreen.bmp	square.bmp
419	real_a	real_topright_same_a	12	412	23	mask.bmp	blankscreen.bmp	wmn4.bmp	blankscreen.bmp	square.bmp
419	real_a	real_bottomright_diff_a	13	350	18	mask.bmp	blankscreen.bmp	wmn3.bmp	blankscreen.bmp	circle.bmp
419	real_a	real_bottomleft_same_a	14	378	18	mask.bmp	blankscreen.bmp	wfn5.bmp	blankscreen.bmp	circle.bmp
419	real_a	real_topleft_same_a	15	388	18	mask.bmp	blankscreen.bmp	wfn4.bmp	blankscreen.bmp	circle.bmp
419	real_a	real_topright_diff_a	16	615	18	mask.bmp	blankscreen.bmp	wmd3.bmp	blankscreen.bmp	circle.bmp
419	real_a	real_topleft_diff_a	17	641	23	mask.bmp	blankscreen.bmp	wfd1.bmp	blankscreen.bmp	square.bmp
419	real_a	real_topright_diff_a	18	530	18	mask.bmp	blankscreen.bmp	wfd2.bmp	blankscreen.bmp	circle.bmp
419	real_a	real_bottomright_same_a	19	462	18	mask.bmp	blankscreen.bmp	wmd5.bmp	blankscreen.bmp	circle.bmp
419	real_a	real_topleft_diff_a	20	566	23	mask.bmp	blankscreen.bmp	wmd2.bmp	blankscreen.bmp	square.bmp
419	real_b	real_bottomleft_diff_b	1	496	23	mask.bmp	blankscreen.bmp	wmn8.bmp	blankscreen.bmp	square.bmp
419	real_b	real_topleft_same_b	2	446	23	mask.bmp	blankscreen.bmp	wmd9.bmp	blankscreen.bmp	square.bmp
419	real_b	real_bottomleft_same_b	3	358	23	mask.bmp	blankscreen.bmp	wmd10.bmp	blankscreen.bmp	square.bmp
419	real_b	real_topright_same_b	4	434	18	mask.bmp	blankscreen.bmp	wmn10.bmp	blankscreen.bmp	circle.bmp
419	real_b	real_bottomright_diff_b	5	466	18	mask.bmp	blankscreen.bmp	wfn8.bmp	blankscreen.bmp	circle.bmp
419	real_b	real_bottomright_same_b	6	466	23	mask.bmp	blankscreen.bmp	wfd10.bmp	blankscreen.bmp	square.bmp
419	real_b	real_topright_diff_b	7	450	18	mask.bmp	blankscreen.bmp	wmn7.bmp	blankscreen.bmp	circle.bmp
419	real_b	real_topleft_same_b	8	402	23	mask.bmp	blankscreen.bmp	wmn9.bmp	blankscreen.bmp	square.bmp
419	real_b	real_bottomright_same_b	9	396	23	mask.bmp	blankscreen.bmp	wfn10.bmp	blankscreen.bmp	square.bmp
419	real_b	real_topright_diff_b	10	582	18	mask.bmp	blankscreen.bmp	wfd8.bmp	blankscreen.bmp	circle.bmp
419	real_b	real_topright_diff_b	11	457	23	mask.bmp	blankscreen.bmp	wfn6.bmp	blankscreen.bmp	square.bmp
419	real_b	real_bottomright_diff_b	12	561	18	mask.bmp	blankscreen.bmp	wfd6.bmp	blankscreen.bmp	circle.bmp
419	real_b	real_topleft_diff_b	13	461	23	mask.bmp	blankscreen.bmp	wmn6.bmp	blankscreen.bmp	square.bmp
419	real_b	real_bottomleft_diff_b	14	477	23	mask.bmp	blankscreen.bmp	wmd6.bmp	blankscreen.bmp	square.bmp
419	real_b	real_topright_same_b	15	484	18	mask.bmp	blankscreen.bmp	wfn9.bmp	blankscreen.bmp	circle.bmp
419	real_b	real_topleft_diff_b	16	386	23	mask.bmp	blankscreen.bmp	wfd7.bmp	blankscreen.bmp	square.bmp
419	real_b	real_bottomright_diff_b	17	373	18	mask.bmp	blankscreen.bmp	wmd7.bmp	blankscreen.bmp	circle.bmp
419	real_b	real_bottomleft_diff_b	18	504	23	mask.bmp	blankscreen.bmp	wfn7.bmp	blankscreen.bmp	square.bmp
419	real_b	real_bottomleft_same_b	19	390	18	mask.bmp	blankscreen.bmp	wfd9.bmp	blankscreen.bmp	circle.bmp
419	real_b	real_topleft_diff_b	20	368	18	mask.bmp	blankscreen.bmp	wmd8.bmp	blankscreen.bmp	circle.bmp
419	real_c	real_bottomright_same_c	1	430	18	mask.bmp	blankscreen.bmp	wmn2.bmp	blankscreen.bmp	circle.bmp
419	real_c	real_bottomleft_diff_c	2	527	18	mask.bmp	blankscreen.bmp	wfd4.bmp	blankscreen.bmp	circle.bmp
419	real_c	real_topleft_diff_c	3	428	18	mask.bmp	blankscreen.bmp	wfn4.bmp	blankscreen.bmp	circle.bmp
419	real_c	real_bottomleft_same_c	4	436	18	mask.bmp	blankscreen.bmp	wmn1.bmp	blankscreen.bmp	circle.bmp
419	real_c	real_bottomright_diff_c	5	565	23	mask.bmp	blankscreen.bmp	wmd3.bmp	blankscreen.bmp	square.bmp
419	real_c	real_topright_diff_c	6	336	23	mask.bmp	blankscreen.bmp	wfn5.bmp	blankscreen.bmp	square.bmp
419	real_c	real_bottomright_same_c	7	413	23	mask.bmp	blankscreen.bmp	wmd2.bmp	blankscreen.bmp	square.bmp
419	real_c	real_topleft_same_c	8	415	23	mask.bmp	blankscreen.bmp	wfn1.bmp	blankscreen.bmp	square.bmp
419	real_c	real_topright_same_c	9	305	18	mask.bmp	blankscreen.bmp	wmd1.bmp	blankscreen.bmp	circle.bmp
419	real_c	real_bottomleft_diff_c	10	567	18	mask.bmp	blankscreen.bmp	wfn3.bmp	blankscreen.bmp	circle.bmp
419	real_c	real_topright_diff_c	11	474	18	mask.bmp	blankscreen.bmp	wmd4.bmp	blankscreen.bmp	circle.bmp
419	real_c	real_bottomright_diff_c	12	586	18	mask.bmp	blankscreen.bmp	wmn4.bmp	blankscreen.bmp	circle.bmp
419	real_c	real_bottomleft_diff_c	13	388	18	mask.bmp	blankscreen.bmp	wmd5.bmp	blankscreen.bmp	circle.bmp
419	real_c	real_topright_same_c	14	447	18	mask.bmp	blankscreen.bmp	wfn2.bmp	blankscreen.bmp	circle.bmp
419	real_c	real_bottomleft_same_c	15	488	23	mask.bmp	blankscreen.bmp	wfd2.bmp	blankscreen.bmp	square.bmp
419	real_c	real_topleft_diff_c	16	630	23	mask.bmp	blankscreen.bmp	wfd3.bmp	blankscreen.bmp	circle.bmp
419	real_c	real_topleft_same_c	17	424	18	mask.bmp	blankscreen.bmp	wfd1.bmp	blankscreen.bmp	circle.bmp
419	real_c	real_topleft_diff_c	18	489	18	mask.bmp	blankscreen.bmp	wmn5.bmp	blankscreen.bmp	circle.bmp
419	real_c	real_bottomright_diff_c	19	584	23	mask.bmp	blankscreen.bmp	wfd5.bmp	blankscreen.bmp	square.bmp
419	real_c	real_topright_diff_c	20	498	23	mask.bmp	blankscreen.bmp	wmn3.bmp	blankscreen.bmp	square.bmp
419	real_d	real_bottomleft_diff_d	1	354	18	mask.bmp	blankscreen.bmp	wfd10.bmp	blankscreen.bmp	circle.bmp
419	real_d	real_topright_same_d	2	398	18	mask.bmp	blankscreen.bmp	wfd6.bmp	blankscreen.bmp	circle.bmp
419	real_d	real_bottomright_diff_d	3	408	18	mask.bmp	blankscreen.bmp	wfd8.bmp	blankscreen.bmp	circle.bmp
419	real_d	real_bottomleft_same_d	4	362	18	mask.bmp	blankscreen.bmp	wmn7.bmp	blankscreen.bmp	circle.bmp
419	real_d	real_bottomright_diff_d	5	438	18	mask.bmp	blankscreen.bmp	wmn10.bmp	blankscreen.bmp	circle.bmp
419	real_d	real_topright_same_d	6	366	23	mask.bmp	blankscreen.bmp	wmd7.bmp	blankscreen.bmp	square.bmp
419	real_d	real_topright_diff_d	7	434	23	mask.bmp	blankscreen.bmp	wmd10.bmp	blankscreen.bmp	square.bmp
419	real_d	real_bottomright_same_d	8	538	23	mask.bmp	blankscreen.bmp	wfd7.bmp	blankscreen.bmp	square.bmp
419	real_d	real_topleft_same_d	9	287	18	mask.bmp	blankscreen.bmp	wmd6.bmp	blankscreen.bmp	circle.bmp
419	real_d	real_bottomright_same_d	10	302	23	mask.bmp	blankscreen.bmp	wfn7.bmp	blankscreen.bmp	square.bmp
419	real_d	real_topleft_diff_d	11	500	18	mask.bmp	blankscreen.bmp	wfn10.bmp	blankscreen.bmp	circle.bmp
419	real_d	real_bottomleft_diff_d	12	386	18	mask.bmp	blankscreen.bmp	wmn9.bmp	blankscreen.bmp	circle.bmp
419	real_d	real_topleft_same_d	13	380	18	mask.bmp	blankscreen.bmp	wmn6.bmp	blankscreen.bmp	circle.bmp
419	real_d	real_bottomleft_same_d	14	520	23	mask.bmp	blankscreen.bmp	wfn6.bmp	blankscreen.bmp	square.bmp
419	real_d	real_topleft_diff_d	15	349	18	mask.bmp	blankscreen.bmp	wmn8.bmp	blankscreen.bmp	circle.bmp
419	real_d	real_bottomright_diff_d	16	361	23	mask.bmp	blankscreen.bmp	wfn9.bmp	blankscreen.bmp	square.bmp
419	real_d	real_topright_diff_d	17	476	23	mask.bmp	blankscreen.bmp	wfd9.bmp	blankscreen.bmp	square.bmp
419	real_d	real_topleft_diff_d	18	484	23	mask.bmp	blankscreen.bmp	wmd9.bmp	blankscreen.bmp	square.bmp
419	real_d	real_topright_diff_d	19	450	18	mask.bmp	blankscreen.bmp	wfn8.bmp	blankscreen.bmp	square.bmp
419	real_d	real_bottomleft_diff_d	20	354	23	mask.bmp	blankscreen.bmp	wmd8.bmp	blankscreen.bmp	square.bmp
424	practice	practice_bottomleft_same	1	523	18	mask.bmp	blankscreen.bmp	practice5.jpg	blankscreen.bmp	circle.bmp
424	practice	practice_topright_diff	2	439	18	mask.bmp	blankscreen.bmp	practice10.jpg	blankscreen.bmp	circle.bmp
424	practice	practice_topleft_same	3	431	18	mask.bmp	blankscreen.bmp	practice2.jpg	blankscreen.bmp	circle.bmp
424	practice	practice_bottomleft_same	4	599	23	mask.bmp	blankscreen.bmp	practice6.jpg	blankscreen.bmp	square.bmp
424	practice	practice_topleft_diff	5	768	18	mask.bmp	blankscreen.bmp	practice9.jpg	blankscreen.bmp	circle.bmp
424	practice	practice_topright_same	6	466	23	mask.bmp	blankscreen.bmp	practice3.jpg	blankscreen.bmp	square.bmp
424	practice	practice_topleft_same	7	489	18	mask.bmp	blankscreen.bmp	practice1.jpg	blankscreen.bmp	circle.bmp
424	practice	practice_bottomright_same	8	374	23	mask.bmp	blankscreen.bmp	practice8.jpg	blankscreen.bmp	square.bmp
424	practice	practice_topright_same	9	736	23	mask.bmp	blankscreen.bmp	practice4.jpg	blankscreen.bmp	square.bmp
424	practice	practice_bottomleft_diff	10	603	23	mask.bmp	blankscreen.bmp	practice11.jpg	blankscreen.bmp	square.bmp
424	practice	practice_bottomright_diff	11	508	18	mask.bmp	blankscreen.bmp	practice12.jpg	blankscreen.bmp	circle.bmp
424	practice	practice_bottomright_same	12	393	18	mask.bmp	blankscreen.bmp	practice7.jpg	blankscreen.bmp	circle.bmp
424	real_a	real_bottomleft_same_a	1	687	23	mask.bmp	blankscreen.bmp	wmd4.bmp	blankscreen.bmp	square.bmp
424	real_a	real_bottomright_diff_a	2	662	18	mask.bmp	blankscreen.bmp	wmd1.bmp	blankscreen.bmp	circle.bmp
424	real_a	real_topleft_diff_a	3	590	18	mask.bmp	blankscreen.bmp	wfd1.bmp	blankscreen.bmp	circle.bmp
424	real_a	real_topright_same_a	4	545	18	mask.bmp	blankscreen.bmp	wmn4.bmp	blankscreen.bmp	circle.bmp
424	real_a	real_bottomright_diff_a	5	525	23	mask.bmp	blankscreen.bmp	wfn2.bmp	blankscreen.bmp	square.bmp
424	real_a	real_topright_diff_a	6	595	23	mask.bmp	blankscreen.bmp	wfd2.bmp	blankscreen.bmp	square.bmp
424	real_a	real_bottomleft_diff_a	7	541	23	mask.bmp	blankscreen.bmp	wfn1.bmp	blankscreen.bmp	square.bmp
424	real_a	real_bottomleft_same_a	8	522	23	mask.bmp	blankscreen.bmp	wfn5.bmp	blankscreen.bmp	square.bmp
424	real_a	real_topleft_diff_a	9	375	18	mask.bmp	blankscreen.bmp	wmd2.bmp	blankscreen.bmp	circle.bmp
424	real_a	real_topleft_same_a	10	906	18	mask.bmp	blankscreen.bmp	wfd4.bmp	blankscreen.bmp	circle.bmp
424	real_a	real_bottomright_diff_a	11	560	18	mask.bmp	blankscreen.bmp	wmn3.bmp	blankscreen.bmp	circle.bmp
424	real_a	real_bottomright_same_a	12	579	18	mask.bmp	blankscreen.bmp	wmd5.bmp	blankscreen.bmp	circle.bmp
424	real_a	real_topleft_same_a	13	670	18	mask.bmp	blankscreen.bmp	wfn4.bmp	blankscreen.bmp	circle.bmp
424	real_a	real_topleft_diff_a	14	581	18	mask.bmp	blankscreen.bmp	wfn3.bmp	blankscreen.bmp	circle.bmp
424	real_a	real_bottomleft_diff_a	15	425	18	mask.bmp	blankscreen.bmp	wmn2.bmp	blankscreen.bmp	circle.bmp
424	real_a	real_bottomright_same_a	16	586	23	mask.bmp	blankscreen.bmp	wmn5.bmp	blankscreen.bmp	square.bmp
424	real_a	real_topright_diff_a	17	485	23	mask.bmp	blankscreen.bmp	wmn1.bmp	blankscreen.bmp	square.bmp
424	real_a	real_topright_same_a	18	587	18	mask.bmp	blankscreen.bmp	wfd5.bmp	blankscreen.bmp	circle.bmp
424	real_a	real_topright_diff_a	19	606	23	mask.bmp	blankscreen.bmp	wmd3.bmp	blankscreen.bmp	square.bmp
424	real_a	real_bottomleft_diff_a	20	432	23	mask.bmp	blankscreen.bmp	wfd3.bmp	blankscreen.bmp	square.bmp
424	real_b	real_bottomleft_same_b	1	532	23	mask.bmp	blankscreen.bmp	wmd10.bmp	blankscreen.bmp	square.bmp
424	real_b	real_topleft_diff_b	2	473	18	mask.bmp	blankscreen.bmp	wmd8.bmp	blankscreen.bmp	circle.bmp
424	real_b	real_topright_same_b	3	448	18	mask.bmp	blankscreen.bmp	wfn9.bmp	blankscreen.bmp	circle.bmp
424	real_b	real_topright_diff_b	4	504	18	mask.bmp	blankscreen.bmp	wmn7.bmp	blankscreen.bmp	circle.bmp
424	real_b	real_bottomright_same_b	5	382	23	mask.bmp	blankscreen.bmp	wfd10.bmp	blankscreen.bmp	square.bmp
424	real_b	real_bottomleft_diff_b	6	617	18	mask.bmp	blankscreen.bmp	wmd6.bmp	blankscreen.bmp	circle.bmp
424	real_b	real_topleft_diff_b	7	530	23	mask.bmp	blankscreen.bmp	wfd7.bmp	blankscreen.bmp	square.bmp
424	real_b	real_bottomright_same_b	8	455	18	mask.bmp	blankscreen.bmp	wfn10.bmp	blankscreen.bmp	circle.bmp
424	real_b	real_topleft_diff_b	9	495	23	mask.bmp	blankscreen.bmp	wmn6.bmp	blankscreen.bmp	square.bmp
424	real_b	real_topright_diff_b	10	574	23	mask.bmp	blankscreen.bmp	wfd8.bmp	blankscreen.bmp	square.bmp
424	real_b	real_topright_same_b	11	553	23	mask.bmp	blankscreen.bmp	wmn10.bmp	blankscreen.bmp	square.bmp
424	real_b	real_bottomleft_diff_b	12	565	18	mask.bmp	blankscreen.bmp	wfn7.bmp	blankscreen.bmp	circle.bmp
424	real_b	real_bottomleft_diff_b	13	553	18	mask.bmp	blankscreen.bmp	wmn8.bmp	blankscreen.bmp	circle.bmp
424	real_b	real_bottomright_diff_b	14	485	23	mask.bmp	blankscreen.bmp	wfn8.bmp	blankscreen.bmp	square.bmp
424	real_b	real_bottomright_diff_b	15	707	18	mask.bmp	blankscreen.bmp	wfd6.bmp	blankscreen.bmp	circle.bmp
424	real_b	real_topright_diff_b	16	417	23	mask.bmp	blankscreen.bmp	wfn6.bmp	blankscreen.bmp	square.bmp
424	real_b	real_topleft_same_b	17	571	23	mask.bmp	blankscreen.bmp	wmd9.bmp	blankscreen.bmp	square.bmp
424	real_b	real_bottomright_diff_b	18	366	18	mask.bmp	blankscreen.bmp	wmd7.bmp	blankscreen.bmp	circle.bmp
424	real_b	real_bottomleft_same_b	19	505	23	mask.bmp	blankscreen.bmp	wfd9.bmp	blankscreen.bmp	square.bmp
424	real_b	real_topleft_same_b	20	439	18	mask.bmp	blankscreen.bmp	wmn9.bmp	blankscreen.bmp	circle.bmp
424	real_c	real_topright_same_c	1	553	18	mask.bmp	blankscreen.bmp	wmd1.bmp	blankscreen.bmp	circle.bmp
424	real_c	real_topright_diff_c	2	437	23	mask.bmp	blankscreen.bmp	wmd4.bmp	blankscreen.bmp	square.bmp
424	real_c	real_bottomleft_diff_c	3	518	23	mask.bmp	blankscreen.bmp	wfn3.bmp	blankscreen.bmp	square.bmp
424	real_c	real_topleft_same_c	4	411	18	mask.bmp	blankscreen.bmp	wfd1.bmp	blankscreen.bmp	circle.bmp
424	real_c	real_topleft_diff_c	5	589	23	mask.bmp	blankscreen.bmp	wfn4.bmp	blankscreen.bmp	square.bmp
424	real_c	real_bottomright_same_c	6	415	23	mask.bmp	blankscreen.bmp	wmd2.bmp	blankscreen.bmp	square.bmp
424	real_c	real_topleft_diff_c	7	561	23	mask.bmp	blankscreen.bmp	wmn5.bmp	blankscreen.bmp	square.bmp
424	real_c	real_topright_diff_c	8	445	18	mask.bmp	blankscreen.bmp	wfn5.bmp	blankscreen.bmp	circle.bmp
424	real_c	real_bottomleft_same_c	9	765	18	mask.bmp	blankscreen.bmp	wfd2.bmp	blankscreen.bmp	circle.bmp
424	real_c	real_bottomright_diff_c	10	665	23	mask.bmp	blankscreen.bmp	wmn4.bmp	blankscreen.bmp	square.bmp
424	real_c	real_topleft_same_c	11	449	18	mask.bmp	blankscreen.bmp	wfn1.bmp	blankscreen.bmp	circle.bmp
424	real_c	real_bottomleft_same_c	12	673	23	mask.bmp	blankscreen.bmp	wmn1.bmp	blankscreen.bmp	square.bmp
424	real_c	real_bottomleft_diff_c	13	440	23	mask.bmp	blankscreen.bmp	wmd5.bmp	blankscreen.bmp	square.bmp
424	real_c	real_topleft_diff_c	14	617	18	mask.bmp	blankscreen.bmp	wfd3.bmp	blankscreen.bmp	circle.bmp
424	real_c	real_bottomright_same_c	15	491	18	mask.bmp	blankscreen.bmp	wmn2.bmp	blankscreen.bmp	circle.bmp
424	real_c	real_bottomright_diff_c	16	537	18	mask.bmp	blankscreen.bmp	wfd5.bmp	blankscreen.bmp	circle.bmp
424	real_c	real_bottomleft_diff_c	17	582	23	mask.bmp	blankscreen.bmp	wfd4.bmp	blankscreen.bmp	square.bmp
424	real_c	real_topright_diff_c	18	497	23	mask.bmp	blankscreen.bmp	wmn3.bmp	blankscreen.bmp	square.bmp
424	real_c	real_bottomright_diff_c	19	575	23	mask.bmp	blankscreen.bmp	wmd3.bmp	blankscreen.bmp	square.bmp
424	real_c	real_topright_same_c	20	515	18	mask.bmp	blankscreen.bmp	wfn2.bmp	blankscreen.bmp	circle.bmp
424	real_d	real_bottomleft_diff_d	1	476	23	mask.bmp	blankscreen.bmp	wmd8.bmp	blankscreen.bmp	square.bmp
424	real_d	real_bottomleft_same_d	2	484	23	mask.bmp	blankscreen.bmp	wmn7.bmp	blankscreen.bmp	square.bmp
424	real_d	real_bottomright_diff_d	3	714	23	mask.bmp	blankscreen.bmp	wfd8.bmp	blankscreen.bmp	square.bmp
424	real_d	real_topright_same_d	4	567	23	mask.bmp	blankscreen.bmp	wmd7.bmp	blankscreen.bmp	square.bmp
424	real_d	real_topright_diff_d	5	378	18	mask.bmp	blankscreen.bmp	wfd9.bmp	blankscreen.bmp	circle.bmp
424	real_d	real_topleft_same_d	6	509	23	mask.bmp	blankscreen.bmp	wmn6.bmp	blankscreen.bmp	square.bmp
424	real_d	real_bottomright_same_d	7	427	23	mask.bmp	blankscreen.bmp	wfn7.bmp	blankscreen.bmp	square.bmp
424	real_d	real_bottomright_diff_d	8	516	18	mask.bmp	blankscreen.bmp	wfn9.bmp	blankscreen.bmp	circle.bmp
424	real_d	real_bottomleft_diff_d	9	449	18	mask.bmp	blankscreen.bmp	wmn9.bmp	blankscreen.bmp	circle.bmp
424	real_d	real_topright_diff_d	10	385	23	mask.bmp	blankscreen.bmp	wfn8.bmp	blankscreen.bmp	square.bmp
424	real_d	real_topleft_diff_d	11	523	18	mask.bmp	blankscreen.bmp	wfn10.bmp	blankscreen.bmp	circle.bmp
424	real_d	real_topright_diff_d	12	513	23	mask.bmp	blankscreen.bmp	wmd10.bmp	blankscreen.bmp	square.bmp
424	real_d	real_bottomleft_diff_d	13	439	23	mask.bmp	blankscreen.bmp	wfd10.bmp	blankscreen.bmp	square.bmp
424	real_d	real_bottomleft_same_d	14	399	18	mask.bmp	blankscreen.bmp	wfn6.bmp	blankscreen.bmp	circle.bmp
424	real_d	real_topleft_diff_d	15	569	23	mask.bmp	blankscreen.bmp	wmd9.bmp	blankscreen.bmp	square.bmp
424	real_d	real_bottomright_diff_d	16	533	23	mask.bmp	blankscreen.bmp	wmn10.bmp	blankscreen.bmp	square.bmp
424	real_d	real_topleft_diff_d	17	362	23	mask.bmp	blankscreen.bmp	wmn8.bmp	blankscreen.bmp	square.bmp
424	real_d	real_topright_same_d	18	389	18	mask.bmp	blankscreen.bmp	wfd6.bmp	blankscreen.bmp	circle.bmp
424	real_d	real_bottomright_same_d	19	320	23	mask.bmp	blankscreen.bmp	wfd7.bmp	blankscreen.bmp	square.bmp
424	real_d	real_topleft_same_d	20	374	18	mask.bmp	blankscreen.bmp	wmd6.bmp	blankscreen.bmp	circle.bmp
428	practice	practice_bottomleft_same	1	982	18	mask.bmp	blankscreen.bmp	practice6.jpg	blankscreen.bmp	circle.bmp
428	practice	practice_bottomleft_same	2	544	18	mask.bmp	blankscreen.bmp	practice5.jpg	blankscreen.bmp	circle.bmp
428	practice	practice_topleft_same	3	539	23	mask.bmp	blankscreen.bmp	practice2.jpg	blankscreen.bmp	square.bmp
428	practice	practice_topright_same	4	351	23	mask.bmp	blankscreen.bmp	practice3.jpg	blankscreen.bmp	square.bmp
428	practice	practice_topright_same	5	434	23	mask.bmp	blankscreen.bmp	practice4.jpg	blankscreen.bmp	square.bmp
428	practice	practice_bottomright_same	6	569	23	mask.bmp	blankscreen.bmp	practice7.jpg	blankscreen.bmp	square.bmp
428	practice	practice_topleft_diff	7	395	18	mask.bmp	blankscreen.bmp	practice9.jpg	blankscreen.bmp	circle.bmp
428	practice	practice_topright_diff	8	541	18	mask.bmp	blankscreen.bmp	practice10.jpg	blankscreen.bmp	circle.bmp
428	practice	practice_bottomright_same	9	344	23	mask.bmp	blankscreen.bmp	practice8.jpg	blankscreen.bmp	square.bmp
428	practice	practice_bottomleft_diff	10	547	23	mask.bmp	blankscreen.bmp	practice11.jpg	blankscreen.bmp	square.bmp
428	practice	practice_bottomright_diff	11	447	18	mask.bmp	blankscreen.bmp	practice12.jpg	blankscreen.bmp	circle.bmp
428	practice	practice_topleft_same	12	342	18	mask.bmp	blankscreen.bmp	practice1.jpg	blankscreen.bmp	circle.bmp
428	real_a	real_bottomleft_diff_a	1	475	23	mask.bmp	blankscreen.bmp	wfn1.bmp	blankscreen.bmp	square.bmp
428	real_a	real_bottomright_diff_a	2	626	23	mask.bmp	blankscreen.bmp	wmn3.bmp	blankscreen.bmp	square.bmp
428	real_a	real_bottomleft_diff_a	3	451	23	mask.bmp	blankscreen.bmp	wmn2.bmp	blankscreen.bmp	square.bmp
428	real_a	real_topleft_diff_a	4	451	18	mask.bmp	blankscreen.bmp	wfn3.bmp	blankscreen.bmp	circle.bmp
428	real_a	real_topright_diff_a	5	467	23	mask.bmp	blankscreen.bmp	wmd3.bmp	blankscreen.bmp	square.bmp
428	real_a	real_bottomright_same_a	6	395	18	mask.bmp	blankscreen.bmp	wmn5.bmp	blankscreen.bmp	circle.bmp
428	real_a	real_bottomleft_same_a	7	309	18	mask.bmp	blankscreen.bmp	wfn5.bmp	blankscreen.bmp	circle.bmp
428	real_a	real_bottomright_diff_a	8	443	18	mask.bmp	blankscreen.bmp	wmd1.bmp	blankscreen.bmp	circle.bmp
428	real_a	real_topleft_same_a	9	603	23	mask.bmp	blankscreen.bmp	wfd4.bmp	blankscreen.bmp	square.bmp
428	real_a	real_topright_diff_a	10	333	23	mask.bmp	blankscreen.bmp	wfd2.bmp	blankscreen.bmp	circle.bmp
428	real_a	real_topright_same_a	11	786	23	mask.bmp	blankscreen.bmp	wmn4.bmp	blankscreen.bmp	square.bmp
428	real_a	real_topleft_same_a	12	349	18	mask.bmp	blankscreen.bmp	wfn4.bmp	blankscreen.bmp	circle.bmp
428	real_a	real_bottomleft_same_a	13	361	18	mask.bmp	blankscreen.bmp	wmd4.bmp	blankscreen.bmp	circle.bmp
428	real_a	real_topleft_diff_a	14	661	23	mask.bmp	blankscreen.bmp	wmd2.bmp	blankscreen.bmp	square.bmp
428	real_a	real_bottomright_same_a	15	276	18	mask.bmp	blankscreen.bmp	wmd5.bmp	blankscreen.bmp	circle.bmp
428	real_a	real_bottomright_diff_a	16	483	18	mask.bmp	blankscreen.bmp	wfn2.bmp	blankscreen.bmp	circle.bmp
428	real_a	real_topright_diff_a	17	426	23	mask.bmp	blankscreen.bmp	wmn1.bmp	blankscreen.bmp	square.bmp
428	real_a	real_topright_same_a	18	443	23	mask.bmp	blankscreen.bmp	wfd5.bmp	blankscreen.bmp	square.bmp
428	real_a	real_topleft_diff_a	19	500	18	mask.bmp	blankscreen.bmp	wfd1.bmp	blankscreen.bmp	circle.bmp
428	real_a	real_bottomleft_diff_a	20	458	23	mask.bmp	blankscreen.bmp	wfd3.bmp	blankscreen.bmp	square.bmp
428	real_b	real_bottomleft_same_b	1	563	18	mask.bmp	blankscreen.bmp	wmd10.bmp	blankscreen.bmp	circle.bmp
428	real_b	real_bottomleft_same_b	2	495	23	mask.bmp	blankscreen.bmp	wfd9.bmp	blankscreen.bmp	square.bmp
428	real_b	real_bottomright_diff_b	3	381	23	mask.bmp	blankscreen.bmp	wfn8.bmp	blankscreen.bmp	square.bmp
428	real_b	real_topright_diff_b	4	456	18	mask.bmp	blankscreen.bmp	wmn7.bmp	blankscreen.bmp	circle.bmp
428	real_b	real_topleft_diff_b	5	472	23	mask.bmp	blankscreen.bmp	wmn6.bmp	blankscreen.bmp	square.bmp
428	real_b	real_topright_same_b	6	479	18	mask.bmp	blankscreen.bmp	wmn10.bmp	blankscreen.bmp	circle.bmp
428	real_b	real_bottomright_diff_b	7	454	18	mask.bmp	blankscreen.bmp	wmd7.bmp	blankscreen.bmp	square.bmp
428	real_b	real_topright_diff_b	8	519	18	mask.bmp	blankscreen.bmp	wfn6.bmp	blankscreen.bmp	circle.bmp
428	real_b	real_topleft_same_b	9	508	18	mask.bmp	blankscreen.bmp	wmn9.bmp	blankscreen.bmp	circle.bmp
428	real_b	real_topleft_diff_b	10	330	23	mask.bmp	blankscreen.bmp	wfd7.bmp	blankscreen.bmp	square.bmp
428	real_b	real_bottomright_same_b	11	495	18	mask.bmp	blankscreen.bmp	wfn10.bmp	blankscreen.bmp	circle.bmp
428	real_b	real_topleft_diff_b	12	421	23	mask.bmp	blankscreen.bmp	wmd8.bmp	blankscreen.bmp	square.bmp
428	real_b	real_topleft_same_b	13	927	23	mask.bmp	blankscreen.bmp	wmd9.bmp	blankscreen.bmp	square.bmp
428	real_b	real_bottomright_diff_b	14	596	18	mask.bmp	blankscreen.bmp	wfd6.bmp	blankscreen.bmp	circle.bmp
428	real_b	real_bottomleft_diff_b	15	311	18	mask.bmp	blankscreen.bmp	wmd6.bmp	blankscreen.bmp	circle.bmp
428	real_b	real_topright_diff_b	16	261	23	mask.bmp	blankscreen.bmp	wfd8.bmp	blankscreen.bmp	square.bmp
428	real_b	real_bottomleft_diff_b	17	357	23	mask.bmp	blankscreen.bmp	wmn8.bmp	blankscreen.bmp	circle.bmp
428	real_b	real_topright_same_b	18	561	18	mask.bmp	blankscreen.bmp	wfn9.bmp	blankscreen.bmp	circle.bmp
428	real_b	real_bottomleft_diff_b	19	468	23	mask.bmp	blankscreen.bmp	wfn7.bmp	blankscreen.bmp	square.bmp
428	real_b	real_bottomright_same_b	20	499	23	mask.bmp	blankscreen.bmp	wfd10.bmp	blankscreen.bmp	square.bmp
428	real_c	real_bottomleft_diff_c	1	569	18	mask.bmp	blankscreen.bmp	wfn3.bmp	blankscreen.bmp	circle.bmp
428	real_c	real_topleft_diff_c	2	453	23	mask.bmp	blankscreen.bmp	wmn5.bmp	blankscreen.bmp	square.bmp
428	real_c	real_bottomleft_same_c	3	845	23	mask.bmp	blankscreen.bmp	wmn1.bmp	blankscreen.bmp	circle.bmp
428	real_c	real_bottomleft_diff_c	4	317	18	mask.bmp	blankscreen.bmp	wfd4.bmp	blankscreen.bmp	circle.bmp
428	real_c	real_topright_same_c	5	371	23	mask.bmp	blankscreen.bmp	wmd1.bmp	blankscreen.bmp	square.bmp
428	real_c	real_bottomright_diff_c	6	430	23	mask.bmp	blankscreen.bmp	wmd3.bmp	blankscreen.bmp	square.bmp
428	real_c	real_bottomright_diff_c	7	415	23	mask.bmp	blankscreen.bmp	wmn4.bmp	blankscreen.bmp	square.bmp
428	real_c	real_bottomright_same_c	8	385	23	mask.bmp	blankscreen.bmp	wmd2.bmp	blankscreen.bmp	square.bmp
428	real_c	real_topright_diff_c	9	332	18	mask.bmp	blankscreen.bmp	wmn3.bmp	blankscreen.bmp	circle.bmp
428	real_c	real_topleft_same_c	10	361	23	mask.bmp	blankscreen.bmp	wfn1.bmp	blankscreen.bmp	square.bmp
428	real_c	real_topleft_same_c	11	325	23	mask.bmp	blankscreen.bmp	wfd1.bmp	blankscreen.bmp	circle.bmp
428	real_c	real_topright_diff_c	12	571	18	mask.bmp	blankscreen.bmp	wmd4.bmp	blankscreen.bmp	circle.bmp
428	real_c	real_topleft_diff_c	13	342	23	mask.bmp	blankscreen.bmp	wfd3.bmp	blankscreen.bmp	square.bmp
428	real_c	real_bottomright_same_c	14	483	23	mask.bmp	blankscreen.bmp	wmn2.bmp	blankscreen.bmp	square.bmp
428	real_c	real_bottomleft_same_c	15	690	23	mask.bmp	blankscreen.bmp	wfd2.bmp	blankscreen.bmp	square.bmp
428	real_c	real_bottomleft_diff_c	16	425	18	mask.bmp	blankscreen.bmp	wmd5.bmp	blankscreen.bmp	circle.bmp
428	real_c	real_topright_diff_c	17	394	23	mask.bmp	blankscreen.bmp	wfn5.bmp	blankscreen.bmp	square.bmp
428	real_c	real_topleft_diff_c	18	476	23	mask.bmp	blankscreen.bmp	wfn4.bmp	blankscreen.bmp	square.bmp
428	real_c	real_bottomright_diff_c	19	491	23	mask.bmp	blankscreen.bmp	wfd5.bmp	blankscreen.bmp	square.bmp
428	real_c	real_topright_same_c	20	506	18	mask.bmp	blankscreen.bmp	wfn2.bmp	blankscreen.bmp	circle.bmp
428	real_d	real_bottomleft_diff_d	1	723	18	mask.bmp	blankscreen.bmp	wmd8.bmp	blankscreen.bmp	circle.bmp
428	real_d	real_topleft_same_d	2	473	23	mask.bmp	blankscreen.bmp	wmd6.bmp	blankscreen.bmp	square.bmp
428	real_d	real_bottomleft_diff_d	3	352	23	mask.bmp	blankscreen.bmp	wmn9.bmp	blankscreen.bmp	square.bmp
428	real_d	real_bottomleft_diff_d	4	396	23	mask.bmp	blankscreen.bmp	wfd10.bmp	blankscreen.bmp	square.bmp
428	real_d	real_bottomright_same_d	5	559	23	mask.bmp	blankscreen.bmp	wfn7.bmp	blankscreen.bmp	square.bmp
428	real_d	real_topleft_diff_d	6	435	23	mask.bmp	blankscreen.bmp	wfn10.bmp	blankscreen.bmp	square.bmp
428	real_d	real_bottomleft_same_d	7	371	23	mask.bmp	blankscreen.bmp	wfn6.bmp	blankscreen.bmp	square.bmp
428	real_d	real_bottomright_diff_d	8	503	23	mask.bmp	blankscreen.bmp	wfn9.bmp	blankscreen.bmp	square.bmp
428	real_d	real_topleft_diff_d	9	501	18	mask.bmp	blankscreen.bmp	wmd9.bmp	blankscreen.bmp	circle.bmp
428	real_d	real_topright_diff_d	10	451	18	mask.bmp	blankscreen.bmp	wmd10.bmp	blankscreen.bmp	circle.bmp
428	real_d	real_topright_diff_d	11	394	18	mask.bmp	blankscreen.bmp	wfd9.bmp	blankscreen.bmp	circle.bmp
428	real_d	real_bottomleft_same_d	12	349	23	mask.bmp	blankscreen.bmp	wmn7.bmp	blankscreen.bmp	square.bmp
428	real_d	real_topright_same_d	13	433	18	mask.bmp	blankscreen.bmp	wfd6.bmp	blankscreen.bmp	square.bmp
428	real_d	real_topleft_same_d	14	746	23	mask.bmp	blankscreen.bmp	wmn6.bmp	blankscreen.bmp	square.bmp
428	real_d	real_bottomright_diff_d	15	671	23	mask.bmp	blankscreen.bmp	wfd8.bmp	blankscreen.bmp	square.bmp
428	real_d	real_topleft_diff_d	16	278	18	mask.bmp	blankscreen.bmp	wmn8.bmp	blankscreen.bmp	circle.bmp
428	real_d	real_bottomright_diff_d	17	445	18	mask.bmp	blankscreen.bmp	wmn10.bmp	blankscreen.bmp	circle.bmp
428	real_d	real_topright_diff_d	18	334	18	mask.bmp	blankscreen.bmp	wfn8.bmp	blankscreen.bmp	circle.bmp
428	real_d	real_topright_same_d	19	619	18	mask.bmp	blankscreen.bmp	wmd7.bmp	blankscreen.bmp	circle.bmp
428	real_d	real_bottomright_same_d	20	428	18	mask.bmp	blankscreen.bmp	wfd7.bmp	blankscreen.bmp	circle.bmp
433	practice	practice_bottomright_same	1	1228	18	mask.bmp	blankscreen.bmp	practice8.jpg	blankscreen.bmp	circle.bmp
433	practice	practice_bottomleft_same	2	956	23	mask.bmp	blankscreen.bmp	practice5.jpg	blankscreen.bmp	square.bmp
433	practice	practice_topright_same	3	438	18	mask.bmp	blankscreen.bmp	practice4.jpg	blankscreen.bmp	circle.bmp
433	practice	practice_bottomright_diff	4	486	23	mask.bmp	blankscreen.bmp	practice12.jpg	blankscreen.bmp	square.bmp
433	practice	practice_topright_same	5	419	18	mask.bmp	blankscreen.bmp	practice3.jpg	blankscreen.bmp	circle.bmp
433	practice	practice_bottomleft_same	6	403	18	mask.bmp	blankscreen.bmp	practice6.jpg	blankscreen.bmp	circle.bmp
433	practice	practice_topright_diff	7	708	23	mask.bmp	blankscreen.bmp	practice10.jpg	blankscreen.bmp	square.bmp
433	practice	practice_topleft_same	8	472	18	mask.bmp	blankscreen.bmp	practice1.jpg	blankscreen.bmp	circle.bmp
433	practice	practice_bottomright_same	9	526	23	mask.bmp	blankscreen.bmp	practice7.jpg	blankscreen.bmp	square.bmp
433	practice	practice_topleft_same	10	530	18	mask.bmp	blankscreen.bmp	practice2.jpg	blankscreen.bmp	circle.bmp
433	practice	practice_bottomleft_diff	11	382	18	mask.bmp	blankscreen.bmp	practice11.jpg	blankscreen.bmp	circle.bmp
433	practice	practice_topleft_diff	12	360	18	mask.bmp	blankscreen.bmp	practice9.jpg	blankscreen.bmp	circle.bmp
433	real_a	real_topleft_same_a	1	934	18	mask.bmp	blankscreen.bmp	wfd4.bmp	blankscreen.bmp	circle.bmp
433	real_a	real_topright_diff_a	2	570	18	mask.bmp	blankscreen.bmp	wmn1.bmp	blankscreen.bmp	circle.bmp
433	real_a	real_bottomleft_diff_a	3	622	18	mask.bmp	blankscreen.bmp	wfn1.bmp	blankscreen.bmp	circle.bmp
433	real_a	real_bottomright_same_a	4	655	23	mask.bmp	blankscreen.bmp	wmn5.bmp	blankscreen.bmp	square.bmp
433	real_a	real_bottomleft_diff_a	5	823	23	mask.bmp	blankscreen.bmp	wfd3.bmp	blankscreen.bmp	square.bmp
433	real_a	real_topright_diff_a	6	592	23	mask.bmp	blankscreen.bmp	wfd2.bmp	blankscreen.bmp	square.bmp
433	real_a	real_bottomright_same_a	7	475	18	mask.bmp	blankscreen.bmp	wmd5.bmp	blankscreen.bmp	circle.bmp
433	real_a	real_bottomright_diff_a	8	466	23	mask.bmp	blankscreen.bmp	wmn3.bmp	blankscreen.bmp	square.bmp
433	real_a	real_bottomleft_same_a	9	458	23	mask.bmp	blankscreen.bmp	wfn5.bmp	blankscreen.bmp	square.bmp
433	real_a	real_bottomright_diff_a	10	370	23	mask.bmp	blankscreen.bmp	wmd1.bmp	blankscreen.bmp	square.bmp
433	real_a	real_topright_same_a	11	573	23	mask.bmp	blankscreen.bmp	wfd5.bmp	blankscreen.bmp	square.bmp
433	real_a	real_topright_diff_a	12	608	23	mask.bmp	blankscreen.bmp	wmd3.bmp	blankscreen.bmp	square.bmp
433	real_a	real_bottomright_diff_a	13	666	18	mask.bmp	blankscreen.bmp	wfn2.bmp	blankscreen.bmp	circle.bmp
433	real_a	real_topleft_same_a	14	578	23	mask.bmp	blankscreen.bmp	wfn4.bmp	blankscreen.bmp	square.bmp
433	real_a	real_bottomleft_diff_a	15	781	23	mask.bmp	blankscreen.bmp	wmn2.bmp	blankscreen.bmp	square.bmp
433	real_a	real_bottomleft_same_a	16	408	18	mask.bmp	blankscreen.bmp	wmd4.bmp	blankscreen.bmp	circle.bmp
433	real_a	real_topleft_diff_a	17	490	23	mask.bmp	blankscreen.bmp	wfd1.bmp	blankscreen.bmp	square.bmp
433	real_a	real_topleft_diff_a	18	456	18	mask.bmp	blankscreen.bmp	wfn3.bmp	blankscreen.bmp	circle.bmp
433	real_a	real_topleft_diff_a	19	760	23	mask.bmp	blankscreen.bmp	wmd2.bmp	blankscreen.bmp	square.bmp
433	real_a	real_topright_same_a	20	388	18	mask.bmp	blankscreen.bmp	wmn4.bmp	blankscreen.bmp	circle.bmp
433	real_b	real_bottomright_diff_b	1	517	23	mask.bmp	blankscreen.bmp	wfn8.bmp	blankscreen.bmp	square.bmp
433	real_b	real_topleft_same_b	2	498	18	mask.bmp	blankscreen.bmp	wmd9.bmp	blankscreen.bmp	circle.bmp
433	real_b	real_bottomright_diff_b	3	368	23	mask.bmp	blankscreen.bmp	wfd6.bmp	blankscreen.bmp	circle.bmp
433	real_b	real_topright_diff_b	4	596	23	mask.bmp	blankscreen.bmp	wmn7.bmp	blankscreen.bmp	square.bmp
433	real_b	real_topleft_diff_b	5	494	18	mask.bmp	blankscreen.bmp	wmn6.bmp	blankscreen.bmp	circle.bmp
433	real_b	real_topright_diff_b	6	508	18	mask.bmp	blankscreen.bmp	wfn6.bmp	blankscreen.bmp	circle.bmp
433	real_b	real_bottomright_same_b	7	458	23	mask.bmp	blankscreen.bmp	wfd10.bmp	blankscreen.bmp	square.bmp
433	real_b	real_bottomright_same_b	8	378	18	mask.bmp	blankscreen.bmp	wfn10.bmp	blankscreen.bmp	circle.bmp
433	real_b	real_topright_same_b	9	389	18	mask.bmp	blankscreen.bmp	wfn9.bmp	blankscreen.bmp	circle.bmp
433	real_b	real_topleft_same_b	10	528	23	mask.bmp	blankscreen.bmp	wmn9.bmp	blankscreen.bmp	square.bmp
433	real_b	real_bottomleft_diff_b	11	580	18	mask.bmp	blankscreen.bmp	wmn8.bmp	blankscreen.bmp	circle.bmp
433	real_b	real_topleft_diff_b	12	495	23	mask.bmp	blankscreen.bmp	wfd7.bmp	blankscreen.bmp	square.bmp
433	real_b	real_bottomleft_diff_b	13	702	18	mask.bmp	blankscreen.bmp	wmd6.bmp	blankscreen.bmp	circle.bmp
433	real_b	real_topright_same_b	14	508	18	mask.bmp	blankscreen.bmp	wmn10.bmp	blankscreen.bmp	circle.bmp
433	real_b	real_topleft_diff_b	15	474	23	mask.bmp	blankscreen.bmp	wmd8.bmp	blankscreen.bmp	square.bmp
433	real_b	real_bottomleft_same_b	16	545	18	mask.bmp	blankscreen.bmp	wmd10.bmp	blankscreen.bmp	circle.bmp
433	real_b	real_bottomleft_diff_b	17	1069	18	mask.bmp	blankscreen.bmp	wfn7.bmp	blankscreen.bmp	circle.bmp
433	real_b	real_topright_diff_b	18	428	23	mask.bmp	blankscreen.bmp	wfd8.bmp	blankscreen.bmp	square.bmp
433	real_b	real_bottomleft_same_b	19	357	23	mask.bmp	blankscreen.bmp	wfd9.bmp	blankscreen.bmp	square.bmp
433	real_b	real_bottomright_diff_b	20	361	18	mask.bmp	blankscreen.bmp	wmd7.bmp	blankscreen.bmp	circle.bmp
433	real_c	real_topright_same_c	1	462	23	mask.bmp	blankscreen.bmp	wfn2.bmp	blankscreen.bmp	square.bmp
433	real_c	real_topleft_diff_c	2	534	23	mask.bmp	blankscreen.bmp	wfn4.bmp	blankscreen.bmp	square.bmp
433	real_c	real_topleft_same_c	3	347	23	mask.bmp	blankscreen.bmp	wfd1.bmp	blankscreen.bmp	square.bmp
433	real_c	real_bottomleft_same_c	4	527	23	mask.bmp	blankscreen.bmp	wmn1.bmp	blankscreen.bmp	square.bmp
433	real_c	real_topleft_diff_c	5	356	23	mask.bmp	blankscreen.bmp	wfd3.bmp	blankscreen.bmp	square.bmp
433	real_c	real_topleft_same_c	6	272	18	mask.bmp	blankscreen.bmp	wfn1.bmp	blankscreen.bmp	circle.bmp
433	real_c	real_bottomleft_diff_c	7	368	18	mask.bmp	blankscreen.bmp	wfd4.bmp	blankscreen.bmp	circle.bmp
433	real_c	real_bottomleft_diff_c	8	436	18	mask.bmp	blankscreen.bmp	wfn3.bmp	blankscreen.bmp	circle.bmp
433	real_c	real_topright_same_c	9	380	23	mask.bmp	blankscreen.bmp	wmd1.bmp	blankscreen.bmp	square.bmp
433	real_c	real_topright_diff_c	10	408	18	mask.bmp	blankscreen.bmp	wmd4.bmp	blankscreen.bmp	circle.bmp
433	real_c	real_bottomright_diff_c	11	418	23	mask.bmp	blankscreen.bmp	wfd5.bmp	blankscreen.bmp	square.bmp
433	real_c	real_bottomleft_diff_c	12	435	18	mask.bmp	blankscreen.bmp	wmd5.bmp	blankscreen.bmp	circle.bmp
433	real_c	real_bottomright_diff_c	13	580	18	mask.bmp	blankscreen.bmp	wmn4.bmp	blankscreen.bmp	circle.bmp
433	real_c	real_topright_diff_c	14	327	23	mask.bmp	blankscreen.bmp	wmn3.bmp	blankscreen.bmp	square.bmp
433	real_c	real_topright_diff_c	15	692	18	mask.bmp	blankscreen.bmp	wfn5.bmp	blankscreen.bmp	circle.bmp
433	real_c	real_bottomright_same_c	16	531	18	mask.bmp	blankscreen.bmp	wmn2.bmp	blankscreen.bmp	circle.bmp
433	real_c	real_topleft_diff_c	17	488	18	mask.bmp	blankscreen.bmp	wmn5.bmp	blankscreen.bmp	circle.bmp
433	real_c	real_bottomleft_same_c	18	367	23	mask.bmp	blankscreen.bmp	wfd2.bmp	blankscreen.bmp	square.bmp
433	real_c	real_bottomright_diff_c	19	474	23	mask.bmp	blankscreen.bmp	wmd3.bmp	blankscreen.bmp	square.bmp
433	real_c	real_bottomright_same_c	20	538	23	mask.bmp	blankscreen.bmp	wmd2.bmp	blankscreen.bmp	square.bmp
433	real_d	real_topright_diff_d	1	380	18	mask.bmp	blankscreen.bmp	wmd10.bmp	blankscreen.bmp	circle.bmp
433	real_d	real_topleft_same_d	2	438	18	mask.bmp	blankscreen.bmp	wmn6.bmp	blankscreen.bmp	circle.bmp
433	real_d	real_bottomleft_same_d	3	423	23	mask.bmp	blankscreen.bmp	wmn7.bmp	blankscreen.bmp	square.bmp
433	real_d	real_bottomright_diff_d	4	432	18	mask.bmp	blankscreen.bmp	wfd8.bmp	blankscreen.bmp	circle.bmp
433	real_d	real_topright_diff_d	5	433	23	mask.bmp	blankscreen.bmp	wfn8.bmp	blankscreen.bmp	square.bmp
433	real_d	real_bottomleft_same_d	6	370	18	mask.bmp	blankscreen.bmp	wfn6.bmp	blankscreen.bmp	circle.bmp
433	real_d	real_topright_diff_d	7	436	18	mask.bmp	blankscreen.bmp	wfd9.bmp	blankscreen.bmp	circle.bmp
433	real_d	real_bottomleft_diff_d	8	405	23	mask.bmp	blankscreen.bmp	wfd10.bmp	blankscreen.bmp	square.bmp
433	real_d	real_topleft_diff_d	9	447	18	mask.bmp	blankscreen.bmp	wmd9.bmp	blankscreen.bmp	circle.bmp
433	real_d	real_bottomright_same_d	10	431	23	mask.bmp	blankscreen.bmp	wfd7.bmp	blankscreen.bmp	square.bmp
433	real_d	real_bottomright_same_d	11	824	23	mask.bmp	blankscreen.bmp	wfn7.bmp	blankscreen.bmp	square.bmp
433	real_d	real_topleft_diff_d	12	521	18	mask.bmp	blankscreen.bmp	wfn10.bmp	blankscreen.bmp	circle.bmp
433	real_d	real_bottomright_diff_d	13	398	18	mask.bmp	blankscreen.bmp	wfn9.bmp	blankscreen.bmp	circle.bmp
433	real_d	real_bottomleft_diff_d	14	497	23	mask.bmp	blankscreen.bmp	wmn9.bmp	blankscreen.bmp	square.bmp
433	real_d	real_topright_same_d	15	383	18	mask.bmp	blankscreen.bmp	wfd6.bmp	blankscreen.bmp	circle.bmp
433	real_d	real_topright_same_d	16	498	23	mask.bmp	blankscreen.bmp	wmd7.bmp	blankscreen.bmp	circle.bmp
433	real_d	real_bottomright_diff_d	17	384	23	mask.bmp	blankscreen.bmp	wmn10.bmp	blankscreen.bmp	square.bmp
433	real_d	real_topleft_same_d	18	483	23	mask.bmp	blankscreen.bmp	wmd6.bmp	blankscreen.bmp	square.bmp
433	real_d	real_topleft_diff_d	19	666	23	mask.bmp	blankscreen.bmp	wmn8.bmp	blankscreen.bmp	square.bmp
433	real_d	real_bottomleft_diff_d	20	641	18	mask.bmp	blankscreen.bmp	wmd8.bmp	blankscreen.bmp	circle.bmp
443	practice	practice_topright_diff	1	503	18	mask.bmp	blankscreen.bmp	practice10.jpg	blankscreen.bmp	circle.bmp
443	practice	practice_bottomright_same	2	836	23	mask.bmp	blankscreen.bmp	practice7.jpg	blankscreen.bmp	square.bmp
443	practice	practice_topleft_diff	3	459	23	mask.bmp	blankscreen.bmp	practice9.jpg	blankscreen.bmp	square.bmp
443	practice	practice_topright_same	4	522	18	mask.bmp	blankscreen.bmp	practice4.jpg	blankscreen.bmp	circle.bmp
443	practice	practice_topright_same	5	582	18	mask.bmp	blankscreen.bmp	practice3.jpg	blankscreen.bmp	circle.bmp
443	practice	practice_topleft_same	6	480	23	mask.bmp	blankscreen.bmp	practice2.jpg	blankscreen.bmp	square.bmp
443	practice	practice_bottomright_same	7	550	23	mask.bmp	blankscreen.bmp	practice8.jpg	blankscreen.bmp	square.bmp
443	practice	practice_topleft_same	8	473	18	mask.bmp	blankscreen.bmp	practice1.jpg	blankscreen.bmp	circle.bmp
443	practice	practice_bottomleft_same	9	407	18	mask.bmp	blankscreen.bmp	practice6.jpg	blankscreen.bmp	square.bmp
443	practice	practice_bottomleft_same	10	576	23	mask.bmp	blankscreen.bmp	practice5.jpg	blankscreen.bmp	circle.bmp
443	practice	practice_bottomright_diff	11	666	23	mask.bmp	blankscreen.bmp	practice12.jpg	blankscreen.bmp	square.bmp
443	practice	practice_bottomleft_diff	12	705	18	mask.bmp	blankscreen.bmp	practice11.jpg	blankscreen.bmp	circle.bmp
443	real_a	real_bottomright_same_a	1	626	23	mask.bmp	blankscreen.bmp	wmn5.bmp	blankscreen.bmp	square.bmp
443	real_a	real_topleft_diff_a	2	579	23	mask.bmp	blankscreen.bmp	wfd1.bmp	blankscreen.bmp	square.bmp
443	real_a	real_topleft_same_a	3	374	18	mask.bmp	blankscreen.bmp	wfd4.bmp	blankscreen.bmp	circle.bmp
443	real_a	real_bottomright_diff_a	4	657	18	mask.bmp	blankscreen.bmp	wmn3.bmp	blankscreen.bmp	circle.bmp
443	real_a	real_topright_same_a	5	625	18	mask.bmp	blankscreen.bmp	wfd5.bmp	blankscreen.bmp	circle.bmp
443	real_a	real_bottomleft_same_a	6	443	23	mask.bmp	blankscreen.bmp	wmd4.bmp	blankscreen.bmp	square.bmp
443	real_a	real_topright_diff_a	7	483	18	mask.bmp	blankscreen.bmp	wfd2.bmp	blankscreen.bmp	circle.bmp
443	real_a	real_bottomleft_diff_a	8	530	18	mask.bmp	blankscreen.bmp	wmn2.bmp	blankscreen.bmp	circle.bmp
443	real_a	real_topleft_diff_a	9	416	18	mask.bmp	blankscreen.bmp	wmd2.bmp	blankscreen.bmp	circle.bmp
443	real_a	real_bottomleft_diff_a	10	346	23	mask.bmp	blankscreen.bmp	wfn1.bmp	blankscreen.bmp	square.bmp
443	real_a	real_topright_same_a	11	414	18	mask.bmp	blankscreen.bmp	wmn4.bmp	blankscreen.bmp	circle.bmp
443	real_a	real_topright_diff_a	12	559	18	mask.bmp	blankscreen.bmp	wmd3.bmp	blankscreen.bmp	circle.bmp
443	real_a	real_bottomleft_diff_a	13	563	18	mask.bmp	blankscreen.bmp	wfd3.bmp	blankscreen.bmp	circle.bmp
443	real_a	real_topleft_same_a	14	415	23	mask.bmp	blankscreen.bmp	wfn4.bmp	blankscreen.bmp	square.bmp
443	real_a	real_bottomright_diff_a	15	457	23	mask.bmp	blankscreen.bmp	wmd1.bmp	blankscreen.bmp	square.bmp
443	real_a	real_bottomleft_same_a	16	457	23	mask.bmp	blankscreen.bmp	wfn5.bmp	blankscreen.bmp	square.bmp
443	real_a	real_bottomright_same_a	17	377	18	mask.bmp	blankscreen.bmp	wmd5.bmp	blankscreen.bmp	circle.bmp
443	real_a	real_bottomright_diff_a	18	588	18	mask.bmp	blankscreen.bmp	wfn2.bmp	blankscreen.bmp	circle.bmp
443	real_a	real_topright_diff_a	19	407	18	mask.bmp	blankscreen.bmp	wmn1.bmp	blankscreen.bmp	circle.bmp
443	real_a	real_topleft_diff_a	20	441	18	mask.bmp	blankscreen.bmp	wfn3.bmp	blankscreen.bmp	circle.bmp
443	real_b	real_topleft_same_b	1	372	23	mask.bmp	blankscreen.bmp	wmd9.bmp	blankscreen.bmp	square.bmp
443	real_b	real_topright_same_b	2	327	18	mask.bmp	blankscreen.bmp	wfn9.bmp	blankscreen.bmp	circle.bmp
443	real_b	real_bottomleft_same_b	3	397	23	mask.bmp	blankscreen.bmp	wmd10.bmp	blankscreen.bmp	square.bmp
443	real_b	real_bottomright_same_b	4	487	23	mask.bmp	blankscreen.bmp	wfd10.bmp	blankscreen.bmp	circle.bmp
443	real_b	real_topright_diff_b	5	502	23	mask.bmp	blankscreen.bmp	wmn7.bmp	blankscreen.bmp	square.bmp
443	real_b	real_topleft_diff_b	6	484	18	mask.bmp	blankscreen.bmp	wfd7.bmp	blankscreen.bmp	circle.bmp
443	real_b	real_bottomright_diff_b	7	507	23	mask.bmp	blankscreen.bmp	wfn8.bmp	blankscreen.bmp	circle.bmp
443	real_b	real_topleft_same_b	8	489	23	mask.bmp	blankscreen.bmp	wmn9.bmp	blankscreen.bmp	square.bmp
443	real_b	real_topright_diff_b	9	407	18	mask.bmp	blankscreen.bmp	wfd8.bmp	blankscreen.bmp	circle.bmp
443	real_b	real_topright_same_b	10	481	23	mask.bmp	blankscreen.bmp	wmn10.bmp	blankscreen.bmp	square.bmp
443	real_b	real_topleft_diff_b	11	424	23	mask.bmp	blankscreen.bmp	wmd8.bmp	blankscreen.bmp	square.bmp
443	real_b	real_bottomleft_diff_b	12	353	18	mask.bmp	blankscreen.bmp	wmn8.bmp	blankscreen.bmp	circle.bmp
443	real_b	real_bottomright_diff_b	13	389	18	mask.bmp	blankscreen.bmp	wmd7.bmp	blankscreen.bmp	circle.bmp
443	real_b	real_topleft_diff_b	14	552	23	mask.bmp	blankscreen.bmp	wmn6.bmp	blankscreen.bmp	square.bmp
443	real_b	real_bottomright_diff_b	15	628	23	mask.bmp	blankscreen.bmp	wfd6.bmp	blankscreen.bmp	square.bmp
443	real_b	real_bottomright_same_b	16	437	23	mask.bmp	blankscreen.bmp	wfn10.bmp	blankscreen.bmp	square.bmp
443	real_b	real_bottomleft_same_b	17	477	23	mask.bmp	blankscreen.bmp	wfd9.bmp	blankscreen.bmp	square.bmp
443	real_b	real_topright_diff_b	18	421	18	mask.bmp	blankscreen.bmp	wfn6.bmp	blankscreen.bmp	circle.bmp
443	real_b	real_bottomleft_diff_b	19	398	18	mask.bmp	blankscreen.bmp	wfn7.bmp	blankscreen.bmp	circle.bmp
443	real_b	real_bottomleft_diff_b	20	393	18	mask.bmp	blankscreen.bmp	wmd6.bmp	blankscreen.bmp	circle.bmp
443	real_c	real_bottomleft_diff_c	1	437	23	mask.bmp	blankscreen.bmp	wfd4.bmp	blankscreen.bmp	square.bmp
443	real_c	real_bottomright_diff_c	2	406	18	mask.bmp	blankscreen.bmp	wfd5.bmp	blankscreen.bmp	circle.bmp
443	real_c	real_topright_diff_c	3	392	18	mask.bmp	blankscreen.bmp	wmd4.bmp	blankscreen.bmp	circle.bmp
443	real_c	real_bottomright_same_c	4	427	23	mask.bmp	blankscreen.bmp	wmn2.bmp	blankscreen.bmp	square.bmp
443	real_c	real_bottomleft_diff_c	5	451	23	mask.bmp	blankscreen.bmp	wmd5.bmp	blankscreen.bmp	square.bmp
443	real_c	real_bottomleft_diff_c	6	388	23	mask.bmp	blankscreen.bmp	wfn3.bmp	blankscreen.bmp	square.bmp
443	real_c	real_topright_same_c	7	511	18	mask.bmp	blankscreen.bmp	wmd1.bmp	blankscreen.bmp	circle.bmp
443	real_c	real_topright_same_c	8	453	18	mask.bmp	blankscreen.bmp	wfn2.bmp	blankscreen.bmp	circle.bmp
443	real_c	real_bottomleft_same_c	9	413	18	mask.bmp	blankscreen.bmp	wfd2.bmp	blankscreen.bmp	circle.bmp
443	real_c	real_bottomleft_same_c	10	422	23	mask.bmp	blankscreen.bmp	wmn1.bmp	blankscreen.bmp	square.bmp
443	real_c	real_topleft_diff_c	11	455	18	mask.bmp	blankscreen.bmp	wmn5.bmp	blankscreen.bmp	circle.bmp
443	real_c	real_topleft_diff_c	12	375	23	mask.bmp	blankscreen.bmp	wfn4.bmp	blankscreen.bmp	square.bmp
443	real_c	real_bottomright_diff_c	13	491	23	mask.bmp	blankscreen.bmp	wmd3.bmp	blankscreen.bmp	square.bmp
443	real_c	real_topright_diff_c	14	449	23	mask.bmp	blankscreen.bmp	wfn5.bmp	blankscreen.bmp	square.bmp
443	real_c	real_topleft_diff_c	15	497	23	mask.bmp	blankscreen.bmp	wfd3.bmp	blankscreen.bmp	square.bmp
443	real_c	real_bottomright_diff_c	16	383	18	mask.bmp	blankscreen.bmp	wmn4.bmp	blankscreen.bmp	circle.bmp
443	real_c	real_bottomright_same_c	17	483	18	mask.bmp	blankscreen.bmp	wmd2.bmp	blankscreen.bmp	circle.bmp
443	real_c	real_topright_diff_c	18	490	23	mask.bmp	blankscreen.bmp	wmn3.bmp	blankscreen.bmp	square.bmp
443	real_c	real_topleft_same_c	19	705	23	mask.bmp	blankscreen.bmp	wfd1.bmp	blankscreen.bmp	square.bmp
443	real_c	real_topleft_same_c	20	367	23	mask.bmp	blankscreen.bmp	wfn1.bmp	blankscreen.bmp	square.bmp
443	real_d	real_topleft_diff_d	1	558	18	mask.bmp	blankscreen.bmp	wfn10.bmp	blankscreen.bmp	circle.bmp
443	real_d	real_bottomleft_same_d	2	410	23	mask.bmp	blankscreen.bmp	wfn6.bmp	blankscreen.bmp	square.bmp
443	real_d	real_bottomright_diff_d	3	556	18	mask.bmp	blankscreen.bmp	wmn10.bmp	blankscreen.bmp	circle.bmp
443	real_d	real_bottomleft_same_d	4	592	18	mask.bmp	blankscreen.bmp	wmn7.bmp	blankscreen.bmp	circle.bmp
443	real_d	real_bottomleft_diff_d	5	459	23	mask.bmp	blankscreen.bmp	wmd8.bmp	blankscreen.bmp	square.bmp
443	real_d	real_topleft_diff_d	6	467	18	mask.bmp	blankscreen.bmp	wmn8.bmp	blankscreen.bmp	circle.bmp
443	real_d	real_topleft_same_d	7	810	23	mask.bmp	blankscreen.bmp	wmd6.bmp	blankscreen.bmp	square.bmp
443	real_d	real_bottomright_diff_d	8	428	23	mask.bmp	blankscreen.bmp	wfd8.bmp	blankscreen.bmp	square.bmp
443	real_d	real_bottomleft_diff_d	9	389	18	mask.bmp	blankscreen.bmp	wfd10.bmp	blankscreen.bmp	circle.bmp
443	real_d	real_bottomright_same_d	10	408	23	mask.bmp	blankscreen.bmp	wfn7.bmp	blankscreen.bmp	square.bmp
443	real_d	real_topleft_diff_d	11	474	23	mask.bmp	blankscreen.bmp	wmd9.bmp	blankscreen.bmp	square.bmp
443	real_d	real_topleft_same_d	12	449	23	mask.bmp	blankscreen.bmp	wmn6.bmp	blankscreen.bmp	square.bmp
443	real_d	real_topright_diff_d	13	369	18	mask.bmp	blankscreen.bmp	wmd10.bmp	blankscreen.bmp	circle.bmp
443	real_d	real_topright_same_d	14	453	23	mask.bmp	blankscreen.bmp	wmd7.bmp	blankscreen.bmp	square.bmp
443	real_d	real_topright_diff_d	15	565	18	mask.bmp	blankscreen.bmp	wfn8.bmp	blankscreen.bmp	circle.bmp
443	real_d	real_bottomleft_diff_d	16	585	23	mask.bmp	blankscreen.bmp	wmn9.bmp	blankscreen.bmp	square.bmp
443	real_d	real_topright_same_d	17	587	18	mask.bmp	blankscreen.bmp	wfd6.bmp	blankscreen.bmp	circle.bmp
443	real_d	real_topright_diff_d	18	749	18	mask.bmp	blankscreen.bmp	wfd9.bmp	blankscreen.bmp	circle.bmp
443	real_d	real_bottomright_diff_d	19	394	18	mask.bmp	blankscreen.bmp	wfn9.bmp	blankscreen.bmp	circle.bmp
443	real_d	real_bottomright_same_d	20	412	18	mask.bmp	blankscreen.bmp	wfd7.bmp	blankscreen.bmp	circle.bmp
449	practice	practice_topleft_same	1	728	18	mask.bmp	blankscreen.bmp	practice2.jpg	blankscreen.bmp	square.bmp
449	practice	practice_bottomleft_diff	2	620	23	mask.bmp	blankscreen.bmp	practice11.jpg	blankscreen.bmp	circle.bmp
449	practice	practice_bottomright_diff	3	1012	18	mask.bmp	blankscreen.bmp	practice12.jpg	blankscreen.bmp	circle.bmp
449	practice	practice_bottomleft_same	4	709	18	mask.bmp	blankscreen.bmp	practice6.jpg	blankscreen.bmp	circle.bmp
449	practice	practice_topright_same	5	585	23	mask.bmp	blankscreen.bmp	practice4.jpg	blankscreen.bmp	square.bmp
449	practice	practice_topleft_same	6	1379	23	mask.bmp	blankscreen.bmp	practice1.jpg	blankscreen.bmp	square.bmp
449	practice	practice_topright_diff	7	1197	18	mask.bmp	blankscreen.bmp	practice10.jpg	blankscreen.bmp	square.bmp
449	practice	practice_bottomright_same	8	870	18	mask.bmp	blankscreen.bmp	practice8.jpg	blankscreen.bmp	circle.bmp
449	practice	practice_topright_same	9	924	23	mask.bmp	blankscreen.bmp	practice3.jpg	blankscreen.bmp	square.bmp
449	practice	practice_bottomleft_same	10	960	23	mask.bmp	blankscreen.bmp	practice5.jpg	blankscreen.bmp	square.bmp
449	practice	practice_topleft_diff	11	987	18	mask.bmp	blankscreen.bmp	practice9.jpg	blankscreen.bmp	circle.bmp
449	practice	practice_bottomright_same	12	828	18	mask.bmp	blankscreen.bmp	practice7.jpg	blankscreen.bmp	circle.bmp
449	real_a	real_bottomleft_same_a	1	1141	23	mask.bmp	blankscreen.bmp	wfn5.bmp	blankscreen.bmp	square.bmp
449	real_a	real_bottomright_same_a	2	865	18	mask.bmp	blankscreen.bmp	wmd5.bmp	blankscreen.bmp	circle.bmp
449	real_a	real_bottomright_same_a	3	945	23	mask.bmp	blankscreen.bmp	wmn5.bmp	blankscreen.bmp	square.bmp
449	real_a	real_bottomleft_diff_a	4	1189	23	mask.bmp	blankscreen.bmp	wmn2.bmp	blankscreen.bmp	square.bmp
449	real_a	real_topleft_same_a	5	743	18	mask.bmp	blankscreen.bmp	wfn4.bmp	blankscreen.bmp	circle.bmp
449	real_a	real_topright_same_a	6	539	18	mask.bmp	blankscreen.bmp	wmn4.bmp	blankscreen.bmp	circle.bmp
449	real_a	real_bottomleft_diff_a	7	712	18	mask.bmp	blankscreen.bmp	wfd3.bmp	blankscreen.bmp	circle.bmp
449	real_a	real_topleft_diff_a	8	558	18	mask.bmp	blankscreen.bmp	wmd2.bmp	blankscreen.bmp	circle.bmp
449	real_a	real_topright_diff_a	9	626	23	mask.bmp	blankscreen.bmp	wmn1.bmp	blankscreen.bmp	square.bmp
449	real_a	real_topleft_diff_a	10	843	23	mask.bmp	blankscreen.bmp	wfd1.bmp	blankscreen.bmp	square.bmp
