subject	blockcode	trialcode	trialnum	latency	response	stimulusitem1	stimulusitem2	stimulusitem3	stimulusitem4	stimulusitem5
202	practice	practice_topright_same	1	1868	23	mask.bmp	blankscreen.bmp	practice3.jpg	blankscreen.bmp	square.bmp
202	practice	practice_topleft_diff	2	1047	18	mask.bmp	blankscreen.bmp	practice9.jpg	blankscreen.bmp	circle.bmp
202	practice	practice_bottomright_diff	3	934	18	mask.bmp	blankscreen.bmp	practice12.jpg	blankscreen.bmp	circle.bmp
202	practice	practice_bottomleft_same	4	690	18	mask.bmp	blankscreen.bmp	practice6.jpg	blankscreen.bmp	circle.bmp
202	practice	practice_bottomright_same	5	719	18	mask.bmp	blankscreen.bmp	practice8.jpg	blankscreen.bmp	circle.bmp
202	practice	practice_topleft_same	6	757	23	mask.bmp	blankscreen.bmp	practice2.jpg	blankscreen.bmp	square.bmp
202	practice	practice_topright_same	7	647	23	mask.bmp	blankscreen.bmp	practice4.jpg	blankscreen.bmp	square.bmp
202	practice	practice_bottomright_same	8	823	23	mask.bmp	blankscreen.bmp	practice7.jpg	blankscreen.bmp	square.bmp
202	practice	practice_bottomleft_diff	9	647	23	mask.bmp	blankscreen.bmp	practice11.jpg	blankscreen.bmp	square.bmp
202	practice	practice_topright_diff	10	855	18	mask.bmp	blankscreen.bmp	practice10.jpg	blankscreen.bmp	circle.bmp
202	practice	practice_bottomleft_same	11	837	23	mask.bmp	blankscreen.bmp	practice5.jpg	blankscreen.bmp	square.bmp
202	practice	practice_topleft_same	12	589	18	mask.bmp	blankscreen.bmp	practice1.jpg	blankscreen.bmp	circle.bmp
202	real_a	real_topright_diff_a	1	593	23	mask.bmp	blankscreen.bmp	wmn1.bmp	blankscreen.bmp	square.bmp
202	real_a	real_topleft_same_a	2	523	18	mask.bmp	blankscreen.bmp	wfn4.bmp	blankscreen.bmp	circle.bmp
202	real_a	real_bottomright_same_a	3	416	18	mask.bmp	blankscreen.bmp	wmd5.bmp	blankscreen.bmp	circle.bmp
202	real_a	real_bottomleft_diff_a	4	730	23	mask.bmp	blankscreen.bmp	wfd3.bmp	blankscreen.bmp	square.bmp
202	real_a	real_topleft_diff_a	5	646	18	mask.bmp	blankscreen.bmp	wmd2.bmp	blankscreen.bmp	circle.bmp
202	real_a	real_bottomleft_diff_a	6	630	18	mask.bmp	blankscreen.bmp	wfn1.bmp	blankscreen.bmp	circle.bmp
202	real_a	real_bottomright_diff_a	7	735	18	mask.bmp	blankscreen.bmp	wmn3.bmp	blankscreen.bmp	circle.bmp
202	real_a	real_bottomleft_same_a	8	451	18	mask.bmp	blankscreen.bmp	wfn5.bmp	blankscreen.bmp	circle.bmp
202	real_a	real_topright_diff_a	9	572	23	mask.bmp	blankscreen.bmp	wfd2.bmp	blankscreen.bmp	square.bmp
202	real_a	real_bottomright_diff_a	10	686	18	mask.bmp	blankscreen.bmp	wfn2.bmp	blankscreen.bmp	circle.bmp
202	real_a	real_topright_same_a	11	541	23	mask.bmp	blankscreen.bmp	wmn4.bmp	blankscreen.bmp	square.bmp
202	real_a	real_topright_same_a	12	601	18	mask.bmp	blankscreen.bmp	wfd5.bmp	blankscreen.bmp	circle.bmp
202	real_a	real_topleft_same_a	13	516	23	mask.bmp	blankscreen.bmp	wfd4.bmp	blankscreen.bmp	square.bmp
202	real_a	real_bottomright_same_a	14	553	23	mask.bmp	blankscreen.bmp	wmn5.bmp	blankscreen.bmp	square.bmp
202	real_a	real_topright_diff_a	15	685	23	mask.bmp	blankscreen.bmp	wmd3.bmp	blankscreen.bmp	square.bmp
202	real_a	real_bottomleft_same_a	16	539	18	mask.bmp	blankscreen.bmp	wmd4.bmp	blankscreen.bmp	circle.bmp
202	real_a	real_topleft_diff_a	17	680	23	mask.bmp	blankscreen.bmp	wfd1.bmp	blankscreen.bmp	square.bmp
202	real_a	real_bottomleft_diff_a	18	566	18	mask.bmp	blankscreen.bmp	wmn2.bmp	blankscreen.bmp	circle.bmp
202	real_a	real_bottomright_diff_a	19	585	23	mask.bmp	blankscreen.bmp	wmd1.bmp	blankscreen.bmp	square.bmp
202	real_a	real_topleft_diff_a	20	621	18	mask.bmp	blankscreen.bmp	wfn3.bmp	blankscreen.bmp	circle.bmp
202	real_b	real_bottomright_diff_b	1	722	18	mask.bmp	blankscreen.bmp	wfd6.bmp	blankscreen.bmp	circle.bmp
202	real_b	real_bottomleft_diff_b	2	470	18	mask.bmp	blankscreen.bmp	wmd6.bmp	blankscreen.bmp	circle.bmp
202	real_b	real_topright_diff_b	3	541	23	mask.bmp	blankscreen.bmp	wmn7.bmp	blankscreen.bmp	square.bmp
202	real_b	real_bottomright_same_b	4	530	23	mask.bmp	blankscreen.bmp	wfd10.bmp	blankscreen.bmp	square.bmp
202	real_b	real_topleft_diff_b	5	583	18	mask.bmp	blankscreen.bmp	wfd7.bmp	blankscreen.bmp	circle.bmp
202	real_b	real_bottomleft_same_b	6	545	18	mask.bmp	blankscreen.bmp	wfd9.bmp	blankscreen.bmp	circle.bmp
202	real_b	real_topleft_same_b	7	390	18	mask.bmp	blankscreen.bmp	wmn9.bmp	blankscreen.bmp	circle.bmp
202	real_b	real_bottomright_diff_b	8	568	23	mask.bmp	blankscreen.bmp	wfn8.bmp	blankscreen.bmp	square.bmp
202	real_b	real_bottomright_same_b	9	508	23	mask.bmp	blankscreen.bmp	wfn10.bmp	blankscreen.bmp	square.bmp
202	real_b	real_topleft_same_b	10	329	18	mask.bmp	blankscreen.bmp	wmd9.bmp	blankscreen.bmp	circle.bmp
202	real_b	real_topright_same_b	11	367	18	mask.bmp	blankscreen.bmp	wfn9.bmp	blankscreen.bmp	circle.bmp
202	real_b	real_bottomleft_diff_b	12	507	18	mask.bmp	blankscreen.bmp	wmn8.bmp	blankscreen.bmp	circle.bmp
202	real_b	real_bottomright_diff_b	13	488	23	mask.bmp	blankscreen.bmp	wmd7.bmp	blankscreen.bmp	square.bmp
202	real_b	real_bottomleft_diff_b	14	535	23	mask.bmp	blankscreen.bmp	wfn7.bmp	blankscreen.bmp	square.bmp
202	real_b	real_topleft_diff_b	15	540	18	mask.bmp	blankscreen.bmp	wmd8.bmp	blankscreen.bmp	circle.bmp
202	real_b	real_topright_same_b	16	344	23	mask.bmp	blankscreen.bmp	wmn10.bmp	blankscreen.bmp	circle.bmp
202	real_b	real_topright_diff_b	17	509	18	mask.bmp	blankscreen.bmp	wfn6.bmp	blankscreen.bmp	circle.bmp
202	real_b	real_bottomleft_same_b	18	314	18	mask.bmp	blankscreen.bmp	wmd10.bmp	blankscreen.bmp	circle.bmp
202	real_b	real_topright_diff_b	19	592	23	mask.bmp	blankscreen.bmp	wfd8.bmp	blankscreen.bmp	square.bmp
202	real_b	real_topleft_diff_b	20	538	23	mask.bmp	blankscreen.bmp	wmn6.bmp	blankscreen.bmp	square.bmp
202	real_c	real_bottomright_diff_c	1	505	18	mask.bmp	blankscreen.bmp	wmn4.bmp	blankscreen.bmp	circle.bmp
202	real_c	real_topleft_same_c	2	279	18	mask.bmp	blankscreen.bmp	wfn1.bmp	blankscreen.bmp	circle.bmp
202	real_c	real_bottomright_same_c	3	351	23	mask.bmp	blankscreen.bmp	wmn2.bmp	blankscreen.bmp	square.bmp
202	real_c	real_bottomleft_diff_c	4	484	18	mask.bmp	blankscreen.bmp	wfd4.bmp	blankscreen.bmp	circle.bmp
202	real_c	real_bottomleft_diff_c	5	498	23	mask.bmp	blankscreen.bmp	wfn3.bmp	blankscreen.bmp	square.bmp
202	real_c	real_bottomleft_same_c	6	585	23	mask.bmp	blankscreen.bmp	wmn1.bmp	blankscreen.bmp	square.bmp
202	real_c	real_bottomright_diff_c	7	499	18	mask.bmp	blankscreen.bmp	wfd5.bmp	blankscreen.bmp	circle.bmp
202	real_c	real_bottomleft_diff_c	8	546	18	mask.bmp	blankscreen.bmp	wmd5.bmp	blankscreen.bmp	circle.bmp
202	real_c	real_topright_diff_c	9	542	23	mask.bmp	blankscreen.bmp	wfn5.bmp	blankscreen.bmp	square.bmp
202	real_c	real_topleft_diff_c	10	498	23	mask.bmp	blankscreen.bmp	wfn4.bmp	blankscreen.bmp	square.bmp
202	real_c	real_topright_diff_c	11	505	23	mask.bmp	blankscreen.bmp	wmn3.bmp	blankscreen.bmp	square.bmp
202	real_c	real_topleft_diff_c	12	518	18	mask.bmp	blankscreen.bmp	wfd3.bmp	blankscreen.bmp	circle.bmp
202	real_c	real_topright_same_c	13	524	23	mask.bmp	blankscreen.bmp	wmd1.bmp	blankscreen.bmp	square.bmp
202	real_c	real_topright_diff_c	14	481	18	mask.bmp	blankscreen.bmp	wmd4.bmp	blankscreen.bmp	circle.bmp
202	real_c	real_bottomright_same_c	15	656	18	mask.bmp	blankscreen.bmp	wmd2.bmp	blankscreen.bmp	circle.bmp
202	real_c	real_bottomleft_same_c	16	535	23	mask.bmp	blankscreen.bmp	wfd2.bmp	blankscreen.bmp	square.bmp
202	real_c	real_topleft_diff_c	17	572	23	mask.bmp	blankscreen.bmp	wmn5.bmp	blankscreen.bmp	square.bmp
202	real_c	real_topright_same_c	18	455	18	mask.bmp	blankscreen.bmp	wfn2.bmp	blankscreen.bmp	circle.bmp
202	real_c	real_bottomright_diff_c	19	479	18	mask.bmp	blankscreen.bmp	wmd3.bmp	blankscreen.bmp	circle.bmp
202	real_c	real_topleft_same_c	20	469	18	mask.bmp	blankscreen.bmp	wfd1.bmp	blankscreen.bmp	circle.bmp
202	real_d	real_topright_diff_d	1	442	18	mask.bmp	blankscreen.bmp	wfd9.bmp	blankscreen.bmp	circle.bmp
202	real_d	real_bottomleft_diff_d	2	731	23	mask.bmp	blankscreen.bmp	wfd10.bmp	blankscreen.bmp	square.bmp
202	real_d	real_topleft_same_d	3	631	23	mask.bmp	blankscreen.bmp	wmn6.bmp	blankscreen.bmp	square.bmp
202	real_d	real_topright_same_d	4	495	18	mask.bmp	blankscreen.bmp	wmd7.bmp	blankscreen.bmp	circle.bmp
202	real_d	real_bottomleft_diff_d	5	590	18	mask.bmp	blankscreen.bmp	wmd8.bmp	blankscreen.bmp	circle.bmp
202	real_d	real_bottomright_same_d	6	448	23	mask.bmp	blankscreen.bmp	wfn7.bmp	blankscreen.bmp	square.bmp
202	real_d	real_topleft_same_d	7	552	18	mask.bmp	blankscreen.bmp	wmd6.bmp	blankscreen.bmp	circle.bmp
202	real_d	real_bottomright_diff_d	8	532	23	mask.bmp	blankscreen.bmp	wmn10.bmp	blankscreen.bmp	square.bmp
202	real_d	real_topleft_diff_d	9	505	23	mask.bmp	blankscreen.bmp	wfn10.bmp	blankscreen.bmp	square.bmp
202	real_d	real_topright_same_d	10	423	18	mask.bmp	blankscreen.bmp	wfd6.bmp	blankscreen.bmp	circle.bmp
202	real_d	real_bottomleft_same_d	11	528	18	mask.bmp	blankscreen.bmp	wmn7.bmp	blankscreen.bmp	circle.bmp
202	real_d	real_bottomright_diff_d	12	557	23	mask.bmp	blankscreen.bmp	wfd8.bmp	blankscreen.bmp	square.bmp
202	real_d	real_bottomright_same_d	13	585	18	mask.bmp	blankscreen.bmp	wfd7.bmp	blankscreen.bmp	circle.bmp
202	real_d	real_bottomright_diff_d	14	523	18	mask.bmp	blankscreen.bmp	wfn9.bmp	blankscreen.bmp	circle.bmp
202	real_d	real_topleft_diff_d	15	600	23	mask.bmp	blankscreen.bmp	wmn8.bmp	blankscreen.bmp	square.bmp
202	real_d	real_topleft_diff_d	16	546	23	mask.bmp	blankscreen.bmp	wmd9.bmp	blankscreen.bmp	square.bmp
202	real_d	real_bottomleft_same_d	17	550	18	mask.bmp	blankscreen.bmp	wfn6.bmp	blankscreen.bmp	circle.bmp
202	real_d	real_topright_diff_d	18	587	18	mask.bmp	blankscreen.bmp	wfn8.bmp	blankscreen.bmp	circle.bmp
202	real_d	real_topright_diff_d	19	589	23	mask.bmp	blankscreen.bmp	wmd10.bmp	blankscreen.bmp	square.bmp
202	real_d	real_bottomleft_diff_d	20	815	23	mask.bmp	blankscreen.bmp	wmn9.bmp	blankscreen.bmp	square.bmp
207	practice	practice_bottomleft_diff	1	2219	23	mask.bmp	blankscreen.bmp	practice11.jpg	blankscreen.bmp	square.bmp
207	practice	practice_bottomleft_same	2	879	18	mask.bmp	blankscreen.bmp	practice6.jpg	blankscreen.bmp	circle.bmp
207	practice	practice_topright_same	3	710	23	mask.bmp	blankscreen.bmp	practice3.jpg	blankscreen.bmp	square.bmp
207	practice	practice_topleft_diff	4	650	18	mask.bmp	blankscreen.bmp	practice9.jpg	blankscreen.bmp	circle.bmp
207	practice	practice_bottomleft_same	5	410	18	mask.bmp	blankscreen.bmp	practice5.jpg	blankscreen.bmp	circle.bmp
207	practice	practice_topright_diff	6	700	23	mask.bmp	blankscreen.bmp	practice10.jpg	blankscreen.bmp	square.bmp
207	practice	practice_bottomright_same	7	818	23	mask.bmp	blankscreen.bmp	practice8.jpg	blankscreen.bmp	square.bmp
207	practice	practice_topright_same	8	563	18	mask.bmp	blankscreen.bmp	practice4.jpg	blankscreen.bmp	circle.bmp
207	practice	practice_bottomright_same	9	647	23	mask.bmp	blankscreen.bmp	practice7.jpg	blankscreen.bmp	square.bmp
207	practice	practice_bottomright_diff	10	486	23	mask.bmp	blankscreen.bmp	practice12.jpg	blankscreen.bmp	square.bmp
207	practice	practice_topleft_same	11	669	18	mask.bmp	blankscreen.bmp	practice2.jpg	blankscreen.bmp	circle.bmp
207	practice	practice_topleft_same	12	516	23	mask.bmp	blankscreen.bmp	practice1.jpg	blankscreen.bmp	square.bmp
207	real_a	real_topright_diff_a	1	772	18	mask.bmp	blankscreen.bmp	wfd2.bmp	blankscreen.bmp	circle.bmp
207	real_a	real_topright_same_a	2	647	18	mask.bmp	blankscreen.bmp	wfd5.bmp	blankscreen.bmp	circle.bmp
207	real_a	real_topright_diff_a	3	550	23	mask.bmp	blankscreen.bmp	wmd3.bmp	blankscreen.bmp	square.bmp
207	real_a	real_bottomright_same_a	4	659	18	mask.bmp	blankscreen.bmp	wmn5.bmp	blankscreen.bmp	circle.bmp
207	real_a	real_bottomleft_diff_a	5	538	18	mask.bmp	blankscreen.bmp	wfd3.bmp	blankscreen.bmp	circle.bmp
207	real_a	real_bottomright_diff_a	6	887	23	mask.bmp	blankscreen.bmp	wmd1.bmp	blankscreen.bmp	square.bmp
207	real_a	real_bottomleft_diff_a	7	652	23	mask.bmp	blankscreen.bmp	wfn1.bmp	blankscreen.bmp	square.bmp
207	real_a	real_bottomleft_same_a	8	612	23	mask.bmp	blankscreen.bmp	wfn5.bmp	blankscreen.bmp	square.bmp
207	real_a	real_bottomleft_same_a	9	805	23	mask.bmp	blankscreen.bmp	wmd4.bmp	blankscreen.bmp	square.bmp
207	real_a	real_bottomright_same_a	10	622	23	mask.bmp	blankscreen.bmp	wmd5.bmp	blankscreen.bmp	square.bmp
207	real_a	real_topleft_same_a	11	702	23	mask.bmp	blankscreen.bmp	wfd4.bmp	blankscreen.bmp	square.bmp
207	real_a	real_topright_same_a	12	652	18	mask.bmp	blankscreen.bmp	wmn4.bmp	blankscreen.bmp	circle.bmp
207	real_a	real_topleft_diff_a	13	620	23	mask.bmp	blankscreen.bmp	wmd2.bmp	blankscreen.bmp	square.bmp
207	real_a	real_bottomleft_diff_a	14	749	23	mask.bmp	blankscreen.bmp	wmn2.bmp	blankscreen.bmp	square.bmp
207	real_a	real_topleft_same_a	15	536	18	mask.bmp	blankscreen.bmp	wfn4.bmp	blankscreen.bmp	circle.bmp
207	real_a	real_bottomright_diff_a	16	485	18	mask.bmp	blankscreen.bmp	wfn2.bmp	blankscreen.bmp	circle.bmp
207	real_a	real_topleft_diff_a	17	565	18	mask.bmp	blankscreen.bmp	wfn3.bmp	blankscreen.bmp	circle.bmp
207	real_a	real_bottomright_diff_a	18	703	23	mask.bmp	blankscreen.bmp	wmn3.bmp	blankscreen.bmp	square.bmp
207	real_a	real_topleft_diff_a	19	1124	18	mask.bmp	blankscreen.bmp	wfd1.bmp	blankscreen.bmp	circle.bmp
207	real_a	real_topright_diff_a	20	656	23	mask.bmp	blankscreen.bmp	wmn1.bmp	blankscreen.bmp	square.bmp
207	real_b	real_bottomright_diff_b	1	920	23	mask.bmp	blankscreen.bmp	wfd6.bmp	blankscreen.bmp	square.bmp
207	real_b	real_bottomleft_same_b	2	677	18	mask.bmp	blankscreen.bmp	wfd9.bmp	blankscreen.bmp	circle.bmp
207	real_b	real_topleft_diff_b	3	803	23	mask.bmp	blankscreen.bmp	wmn6.bmp	blankscreen.bmp	square.bmp
207	real_b	real_bottomright_same_b	4	749	18	mask.bmp	blankscreen.bmp	wfd10.bmp	blankscreen.bmp	circle.bmp
207	real_b	real_bottomright_diff_b	5	832	18	mask.bmp	blankscreen.bmp	wmd7.bmp	blankscreen.bmp	circle.bmp
207	real_b	real_topright_diff_b	6	552	23	mask.bmp	blankscreen.bmp	wfn6.bmp	blankscreen.bmp	square.bmp
207	real_b	real_topright_diff_b	7	740	18	mask.bmp	blankscreen.bmp	wfd8.bmp	blankscreen.bmp	circle.bmp
207	real_b	real_bottomright_same_b	8	824	18	mask.bmp	blankscreen.bmp	wfn10.bmp	blankscreen.bmp	circle.bmp
207	real_b	real_topleft_same_b	9	456	18	mask.bmp	blankscreen.bmp	wmd9.bmp	blankscreen.bmp	circle.bmp
207	real_b	real_topright_same_b	10	624	18	mask.bmp	blankscreen.bmp	wfn9.bmp	blankscreen.bmp	circle.bmp
207	real_b	real_bottomright_diff_b	11	640	18	mask.bmp	blankscreen.bmp	wfn8.bmp	blankscreen.bmp	circle.bmp
207	real_b	real_topleft_diff_b	12	712	23	mask.bmp	blankscreen.bmp	wfd7.bmp	blankscreen.bmp	square.bmp
207	real_b	real_bottomleft_diff_b	13	629	18	mask.bmp	blankscreen.bmp	wfn7.bmp	blankscreen.bmp	circle.bmp
207	real_b	real_topright_diff_b	14	758	18	mask.bmp	blankscreen.bmp	wmn7.bmp	blankscreen.bmp	circle.bmp
207	real_b	real_topright_same_b	15	601	18	mask.bmp	blankscreen.bmp	wmn10.bmp	blankscreen.bmp	circle.bmp
207	real_b	real_bottomleft_diff_b	16	771	23	mask.bmp	blankscreen.bmp	wmn8.bmp	blankscreen.bmp	square.bmp
207	real_b	real_bottomleft_same_b	17	557	23	mask.bmp	blankscreen.bmp	wmd10.bmp	blankscreen.bmp	square.bmp
207	real_b	real_bottomleft_diff_b	18	648	23	mask.bmp	blankscreen.bmp	wmd6.bmp	blankscreen.bmp	square.bmp
207	real_b	real_topleft_same_b	19	672	23	mask.bmp	blankscreen.bmp	wmn9.bmp	blankscreen.bmp	square.bmp
207	real_b	real_topleft_diff_b	20	559	23	mask.bmp	blankscreen.bmp	wmd8.bmp	blankscreen.bmp	square.bmp
207	real_c	real_topleft_same_c	1	900	23	mask.bmp	blankscreen.bmp	wfd1.bmp	blankscreen.bmp	square.bmp
207	real_c	real_bottomright_diff_c	2	601	18	mask.bmp	blankscreen.bmp	wmn4.bmp	blankscreen.bmp	circle.bmp
207	real_c	real_topright_diff_c	3	644	23	mask.bmp	blankscreen.bmp	wmd4.bmp	blankscreen.bmp	square.bmp
207	real_c	real_topright_same_c	4	643	18	mask.bmp	blankscreen.bmp	wfn2.bmp	blankscreen.bmp	circle.bmp
207	real_c	real_bottomright_diff_c	5	643	23	mask.bmp	blankscreen.bmp	wfd5.bmp	blankscreen.bmp	square.bmp
207	real_c	real_bottomright_diff_c	6	723	18	mask.bmp	blankscreen.bmp	wmd3.bmp	blankscreen.bmp	circle.bmp
207	real_c	real_bottomleft_diff_c	7	559	18	mask.bmp	blankscreen.bmp	wmd5.bmp	blankscreen.bmp	circle.bmp
207	real_c	real_topleft_same_c	8	523	18	mask.bmp	blankscreen.bmp	wfn1.bmp	blankscreen.bmp	circle.bmp
207	real_c	real_topleft_diff_c	9	496	18	mask.bmp	blankscreen.bmp	wfn4.bmp	blankscreen.bmp	circle.bmp
207	real_c	real_bottomright_same_c	10	494	18	mask.bmp	blankscreen.bmp	wmd2.bmp	blankscreen.bmp	circle.bmp
207	real_c	real_topright_same_c	11	548	23	mask.bmp	blankscreen.bmp	wmd1.bmp	blankscreen.bmp	square.bmp
207	real_c	real_bottomleft_diff_c	12	633	23	mask.bmp	blankscreen.bmp	wfd4.bmp	blankscreen.bmp	square.bmp
207	real_c	real_topleft_diff_c	13	505	18	mask.bmp	blankscreen.bmp	wmn5.bmp	blankscreen.bmp	circle.bmp
207	real_c	real_bottomright_same_c	14	751	18	mask.bmp	blankscreen.bmp	wmn2.bmp	blankscreen.bmp	circle.bmp
207	real_c	real_bottomleft_diff_c	15	634	18	mask.bmp	blankscreen.bmp	wfn3.bmp	blankscreen.bmp	circle.bmp
207	real_c	real_topright_diff_c	16	627	18	mask.bmp	blankscreen.bmp	wfn5.bmp	blankscreen.bmp	circle.bmp
207	real_c	real_topleft_diff_c	17	596	18	mask.bmp	blankscreen.bmp	wfd3.bmp	blankscreen.bmp	circle.bmp
207	real_c	real_bottomleft_same_c	18	558	23	mask.bmp	blankscreen.bmp	wmn1.bmp	blankscreen.bmp	square.bmp
207	real_c	real_bottomleft_same_c	19	761	23	mask.bmp	blankscreen.bmp	wfd2.bmp	blankscreen.bmp	square.bmp
207	real_c	real_topright_diff_c	20	668	18	mask.bmp	blankscreen.bmp	wmn3.bmp	blankscreen.bmp	circle.bmp
207	real_d	real_bottomright_diff_d	1	583	23	mask.bmp	blankscreen.bmp	wfn9.bmp	blankscreen.bmp	square.bmp
207	real_d	real_topleft_same_d	2	681	18	mask.bmp	blankscreen.bmp	wmd6.bmp	blankscreen.bmp	circle.bmp
207	real_d	real_bottomleft_same_d	3	760	23	mask.bmp	blankscreen.bmp	wmn7.bmp	blankscreen.bmp	square.bmp
207	real_d	real_bottomleft_diff_d	4	403	23	mask.bmp	blankscreen.bmp	wmn9.bmp	blankscreen.bmp	square.bmp
207	real_d	real_topright_same_d	5	445	23	mask.bmp	blankscreen.bmp	wfd6.bmp	blankscreen.bmp	square.bmp
207	real_d	real_topleft_diff_d	6	613	18	mask.bmp	blankscreen.bmp	wmn8.bmp	blankscreen.bmp	circle.bmp
207	real_d	real_topright_diff_d	7	574	18	mask.bmp	blankscreen.bmp	wmd10.bmp	blankscreen.bmp	circle.bmp
207	real_d	real_topleft_diff_d	8	625	18	mask.bmp	blankscreen.bmp	wfn10.bmp	blankscreen.bmp	circle.bmp
207	real_d	real_bottomleft_diff_d	9	522	23	mask.bmp	blankscreen.bmp	wfd10.bmp	blankscreen.bmp	square.bmp
207	real_d	real_bottomright_same_d	10	534	23	mask.bmp	blankscreen.bmp	wfd7.bmp	blankscreen.bmp	square.bmp
207	real_d	real_bottomleft_same_d	11	660	18	mask.bmp	blankscreen.bmp	wfn6.bmp	blankscreen.bmp	circle.bmp
207	real_d	real_bottomright_same_d	12	571	18	mask.bmp	blankscreen.bmp	wfn7.bmp	blankscreen.bmp	circle.bmp
207	real_d	real_topleft_diff_d	13	550	23	mask.bmp	blankscreen.bmp	wmd9.bmp	blankscreen.bmp	square.bmp
207	real_d	real_bottomright_diff_d	14	626	18	mask.bmp	blankscreen.bmp	wfd8.bmp	blankscreen.bmp	circle.bmp
207	real_d	real_topright_same_d	15	474	18	mask.bmp	blankscreen.bmp	wmd7.bmp	blankscreen.bmp	circle.bmp
207	real_d	real_bottomright_diff_d	16	481	18	mask.bmp	blankscreen.bmp	wmn10.bmp	blankscreen.bmp	circle.bmp
207	real_d	real_topleft_same_d	17	456	18	mask.bmp	blankscreen.bmp	wmn6.bmp	blankscreen.bmp	circle.bmp
207	real_d	real_topright_diff_d	18	488	18	mask.bmp	blankscreen.bmp	wfn8.bmp	blankscreen.bmp	circle.bmp
207	real_d	real_topright_diff_d	19	447	18	mask.bmp	blankscreen.bmp	wfd9.bmp	blankscreen.bmp	circle.bmp
207	real_d	real_bottomleft_diff_d	20	495	18	mask.bmp	blankscreen.bmp	wmd8.bmp	blankscreen.bmp	circle.bmp
211	practice	practice_bottomright_diff	1	1128	18	mask.bmp	blankscreen.bmp	practice12.jpg	blankscreen.bmp	circle.bmp
211	practice	practice_bottomleft_same	2	507	18	mask.bmp	blankscreen.bmp	practice5.jpg	blankscreen.bmp	circle.bmp
211	practice	practice_topright_diff	3	481	18	mask.bmp	blankscreen.bmp	practice10.jpg	blankscreen.bmp	circle.bmp
211	practice	practice_topleft_diff	4	472	18	mask.bmp	blankscreen.bmp	practice9.jpg	blankscreen.bmp	circle.bmp
211	practice	practice_topright_same	5	623	18	mask.bmp	blankscreen.bmp	practice3.jpg	blankscreen.bmp	circle.bmp
211	practice	practice_bottomleft_same	6	816	23	mask.bmp	blankscreen.bmp	practice6.jpg	blankscreen.bmp	square.bmp
211	practice	practice_topright_same	7	584	18	mask.bmp	blankscreen.bmp	practice4.jpg	blankscreen.bmp	circle.bmp
211	practice	practice_topleft_same	8	627	23	mask.bmp	blankscreen.bmp	practice1.jpg	blankscreen.bmp	square.bmp
211	practice	practice_topleft_same	9	732	23	mask.bmp	blankscreen.bmp	practice2.jpg	blankscreen.bmp	square.bmp
211	practice	practice_bottomright_same	10	592	23	mask.bmp	blankscreen.bmp	practice7.jpg	blankscreen.bmp	square.bmp
211	practice	practice_bottomright_same	11	570	23	mask.bmp	blankscreen.bmp	practice8.jpg	blankscreen.bmp	square.bmp
211	practice	practice_bottomleft_diff	12	501	18	mask.bmp	blankscreen.bmp	practice11.jpg	blankscreen.bmp	circle.bmp
211	real_a	real_topleft_same_a	1	643	23	mask.bmp	blankscreen.bmp	wfn4.bmp	blankscreen.bmp	square.bmp
211	real_a	real_bottomright_same_a	2	858	23	mask.bmp	blankscreen.bmp	wmd5.bmp	blankscreen.bmp	square.bmp
211	real_a	real_bottomright_diff_a	3	593	23	mask.bmp	blankscreen.bmp	wmn3.bmp	blankscreen.bmp	square.bmp
211	real_a	real_topleft_same_a	4	595	18	mask.bmp	blankscreen.bmp	wfd4.bmp	blankscreen.bmp	circle.bmp
211	real_a	real_topleft_diff_a	5	717	18	mask.bmp	blankscreen.bmp	wmd2.bmp	blankscreen.bmp	circle.bmp
211	real_a	real_topright_diff_a	6	418	23	mask.bmp	blankscreen.bmp	wmn1.bmp	blankscreen.bmp	square.bmp
211	real_a	real_topright_same_a	7	572	23	mask.bmp	blankscreen.bmp	wmn4.bmp	blankscreen.bmp	square.bmp
211	real_a	real_topright_diff_a	8	655	23	mask.bmp	blankscreen.bmp	wmd3.bmp	blankscreen.bmp	square.bmp
211	real_a	real_bottomright_same_a	9	606	18	mask.bmp	blankscreen.bmp	wmn5.bmp	blankscreen.bmp	circle.bmp
211	real_a	real_bottomleft_same_a	10	567	18	mask.bmp	blankscreen.bmp	wfn5.bmp	blankscreen.bmp	circle.bmp
211	real_a	real_bottomleft_diff_a	11	627	23	mask.bmp	blankscreen.bmp	wmn2.bmp	blankscreen.bmp	square.bmp
211	real_a	real_bottomleft_same_a	12	643	23	mask.bmp	blankscreen.bmp	wmd4.bmp	blankscreen.bmp	square.bmp
211	real_a	real_topleft_diff_a	13	531	23	mask.bmp	blankscreen.bmp	wfn3.bmp	blankscreen.bmp	square.bmp
211	real_a	real_bottomright_diff_a	14	664	18	mask.bmp	blankscreen.bmp	wfn2.bmp	blankscreen.bmp	circle.bmp
211	real_a	real_topright_same_a	15	727	23	mask.bmp	blankscreen.bmp	wfd5.bmp	blankscreen.bmp	square.bmp
211	real_a	real_bottomleft_diff_a	16	508	18	mask.bmp	blankscreen.bmp	wfn1.bmp	blankscreen.bmp	circle.bmp
211	real_a	real_bottomright_diff_a	17	665	23	mask.bmp	blankscreen.bmp	wmd1.bmp	blankscreen.bmp	square.bmp
211	real_a	real_bottomleft_diff_a	18	528	18	mask.bmp	blankscreen.bmp	wfd3.bmp	blankscreen.bmp	circle.bmp
211	real_a	real_topright_diff_a	19	613	18	mask.bmp	blankscreen.bmp	wfd2.bmp	blankscreen.bmp	circle.bmp
211	real_a	real_topleft_diff_a	20	551	23	mask.bmp	blankscreen.bmp	wfd1.bmp	blankscreen.bmp	square.bmp
211	real_b	real_bottomleft_diff_b	1	608	23	mask.bmp	blankscreen.bmp	wmd6.bmp	blankscreen.bmp	square.bmp
211	real_b	real_topright_diff_b	2	521	23	mask.bmp	blankscreen.bmp	wfn6.bmp	blankscreen.bmp	square.bmp
211	real_b	real_topleft_diff_b	3	350	18	mask.bmp	blankscreen.bmp	wmn6.bmp	blankscreen.bmp	circle.bmp
211	real_b	real_bottomright_same_b	4	603	18	mask.bmp	blankscreen.bmp	wfd10.bmp	blankscreen.bmp	circle.bmp
211	real_b	real_bottomright_diff_b	5	405	23	mask.bmp	blankscreen.bmp	wfd6.bmp	blankscreen.bmp	square.bmp
211	real_b	real_bottomright_diff_b	6	559	18	mask.bmp	blankscreen.bmp	wfn8.bmp	blankscreen.bmp	circle.bmp
211	real_b	real_topleft_diff_b	7	498	18	mask.bmp	blankscreen.bmp	wfd7.bmp	blankscreen.bmp	circle.bmp
211	real_b	real_bottomleft_diff_b	8	552	23	mask.bmp	blankscreen.bmp	wfn7.bmp	blankscreen.bmp	square.bmp
211	real_b	real_topleft_same_b	9	516	23	mask.bmp	blankscreen.bmp	wmn9.bmp	blankscreen.bmp	square.bmp
211	real_b	real_bottomleft_diff_b	10	474	18	mask.bmp	blankscreen.bmp	wmn8.bmp	blankscreen.bmp	circle.bmp
211	real_b	real_topright_same_b	11	777	18	mask.bmp	blankscreen.bmp	wmn10.bmp	blankscreen.bmp	circle.bmp
211	real_b	real_topright_diff_b	12	427	23	mask.bmp	blankscreen.bmp	wfd8.bmp	blankscreen.bmp	square.bmp
211	real_b	real_bottomleft_same_b	13	460	18	mask.bmp	blankscreen.bmp	wmd10.bmp	blankscreen.bmp	circle.bmp
211	real_b	real_topright_diff_b	14	588	23	mask.bmp	blankscreen.bmp	wmn7.bmp	blankscreen.bmp	square.bmp
211	real_b	real_bottomright_same_b	15	518	18	mask.bmp	blankscreen.bmp	wfn10.bmp	blankscreen.bmp	circle.bmp
211	real_b	real_bottomright_diff_b	16	580	18	mask.bmp	blankscreen.bmp	wmd7.bmp	blankscreen.bmp	square.bmp
211	real_b	real_topleft_same_b	17	447	23	mask.bmp	blankscreen.bmp	wmd9.bmp	blankscreen.bmp	square.bmp
211	real_b	real_bottomleft_same_b	18	415	23	mask.bmp	blankscreen.bmp	wfd9.bmp	blankscreen.bmp	square.bmp
211	real_b	real_topright_same_b	19	593	23	mask.bmp	blankscreen.bmp	wfn9.bmp	blankscreen.bmp	square.bmp
211	real_b	real_topleft_diff_b	20	467	18	mask.bmp	blankscreen.bmp	wmd8.bmp	blankscreen.bmp	circle.bmp
211	real_c	real_topleft_diff_c	1	564	18	mask.bmp	blankscreen.bmp	wfn4.bmp	blankscreen.bmp	circle.bmp
211	real_c	real_bottomleft_same_c	2	391	18	mask.bmp	blankscreen.bmp	wfd2.bmp	blankscreen.bmp	circle.bmp
211	real_c	real_bottomleft_same_c	3	554	18	mask.bmp	blankscreen.bmp	wmn1.bmp	blankscreen.bmp	circle.bmp
211	real_c	real_topright_diff_c	4	437	23	mask.bmp	blankscreen.bmp	wmn3.bmp	blankscreen.bmp	square.bmp
211	real_c	real_topright_diff_c	5	350	18	mask.bmp	blankscreen.bmp	wmd4.bmp	blankscreen.bmp	circle.bmp
211	real_c	real_bottomleft_diff_c	6	482	18	mask.bmp	blankscreen.bmp	wmd5.bmp	blankscreen.bmp	circle.bmp
211	real_c	real_topright_same_c	7	545	18	mask.bmp	blankscreen.bmp	wfn2.bmp	blankscreen.bmp	circle.bmp
211	real_c	real_topleft_diff_c	8	550	18	mask.bmp	blankscreen.bmp	wfd3.bmp	blankscreen.bmp	circle.bmp
211	real_c	real_bottomleft_diff_c	9	466	18	mask.bmp	blankscreen.bmp	wfn3.bmp	blankscreen.bmp	circle.bmp
211	real_c	real_bottomright_diff_c	10	458	18	mask.bmp	blankscreen.bmp	wfd5.bmp	blankscreen.bmp	circle.bmp
211	real_c	real_bottomright_diff_c	11	378	18	mask.bmp	blankscreen.bmp	wmd3.bmp	blankscreen.bmp	square.bmp
211	real_c	real_bottomright_same_c	12	693	23	mask.bmp	blankscreen.bmp	wmn2.bmp	blankscreen.bmp	square.bmp
211	real_c	real_bottomright_diff_c	13	491	18	mask.bmp	blankscreen.bmp	wmn4.bmp	blankscreen.bmp	circle.bmp
211	real_c	real_topleft_diff_c	14	513	18	mask.bmp	blankscreen.bmp	wmn5.bmp	blankscreen.bmp	circle.bmp
211	real_c	real_bottomleft_diff_c	15	374	23	mask.bmp	blankscreen.bmp	wfd4.bmp	blankscreen.bmp	square.bmp
211	real_c	real_topright_diff_c	16	570	23	mask.bmp	blankscreen.bmp	wfn5.bmp	blankscreen.bmp	square.bmp
211	real_c	real_topright_same_c	17	429	23	mask.bmp	blankscreen.bmp	wmd1.bmp	blankscreen.bmp	square.bmp
211	real_c	real_topleft_same_c	18	486	23	mask.bmp	blankscreen.bmp	wfd1.bmp	blankscreen.bmp	square.bmp
211	real_c	real_topleft_same_c	19	901	23	mask.bmp	blankscreen.bmp	wfn1.bmp	blankscreen.bmp	square.bmp
211	real_c	real_bottomright_same_c	20	410	23	mask.bmp	blankscreen.bmp	wmd2.bmp	blankscreen.bmp	square.bmp
211	real_d	real_bottomright_diff_d	1	548	23	mask.bmp	blankscreen.bmp	wmn10.bmp	blankscreen.bmp	square.bmp
211	real_d	real_topleft_diff_d	2	432	23	mask.bmp	blankscreen.bmp	wmd9.bmp	blankscreen.bmp	square.bmp
211	real_d	real_topright_diff_d	3	513	18	mask.bmp	blankscreen.bmp	wmd10.bmp	blankscreen.bmp	circle.bmp
211	real_d	real_bottomleft_same_d	4	535	23	mask.bmp	blankscreen.bmp	wfn6.bmp	blankscreen.bmp	square.bmp
211	real_d	real_topleft_same_d	5	596	23	mask.bmp	blankscreen.bmp	wmn6.bmp	blankscreen.bmp	square.bmp
211	real_d	real_topright_diff_d	6	478	23	mask.bmp	blankscreen.bmp	wfn8.bmp	blankscreen.bmp	square.bmp
211	real_d	real_topleft_diff_d	7	525	18	mask.bmp	blankscreen.bmp	wfn10.bmp	blankscreen.bmp	circle.bmp
211	real_d	real_bottomleft_diff_d	8	418	23	mask.bmp	blankscreen.bmp	wmn9.bmp	blankscreen.bmp	square.bmp
211	real_d	real_bottomleft_diff_d	9	364	18	mask.bmp	blankscreen.bmp	wmd8.bmp	blankscreen.bmp	circle.bmp
211	real_d	real_bottomright_diff_d	10	392	23	mask.bmp	blankscreen.bmp	wfn9.bmp	blankscreen.bmp	square.bmp
211	real_d	real_bottomleft_same_d	11	355	18	mask.bmp	blankscreen.bmp	wmn7.bmp	blankscreen.bmp	circle.bmp
211	real_d	real_bottomright_same_d	12	327	23	mask.bmp	blankscreen.bmp	wfd7.bmp	blankscreen.bmp	circle.bmp
211	real_d	real_bottomright_same_d	13	452	18	mask.bmp	blankscreen.bmp	wfn7.bmp	blankscreen.bmp	circle.bmp
211	real_d	real_bottomright_diff_d	14	589	23	mask.bmp	blankscreen.bmp	wfd8.bmp	blankscreen.bmp	square.bmp
211	real_d	real_bottomleft_diff_d	15	431	18	mask.bmp	blankscreen.bmp	wfd10.bmp	blankscreen.bmp	circle.bmp
211	real_d	real_topleft_same_d	16	576	23	mask.bmp	blankscreen.bmp	wmd6.bmp	blankscreen.bmp	square.bmp
211	real_d	real_topright_same_d	17	483	18	mask.bmp	blankscreen.bmp	wmd7.bmp	blankscreen.bmp	circle.bmp
211	real_d	real_topright_same_d	18	490	23	mask.bmp	blankscreen.bmp	wfd6.bmp	blankscreen.bmp	square.bmp
211	real_d	real_topleft_diff_d	19	448	18	mask.bmp	blankscreen.bmp	wmn8.bmp	blankscreen.bmp	circle.bmp
211	real_d	real_topright_diff_d	20	456	23	mask.bmp	blankscreen.bmp	wfd9.bmp	blankscreen.bmp	square.bmp
217	practice	practice_bottomright_same	1	1292	23	mask.bmp	blankscreen.bmp	practice7.jpg	blankscreen.bmp	square.bmp
217	practice	practice_topleft_same	2	760	18	mask.bmp	blankscreen.bmp	practice1.jpg	blankscreen.bmp	circle.bmp
217	practice	practice_bottomleft_same	3	522	23	mask.bmp	blankscreen.bmp	practice6.jpg	blankscreen.bmp	square.bmp
217	practice	practice_topright_same	4	487	23	mask.bmp	blankscreen.bmp	practice3.jpg	blankscreen.bmp	square.bmp
217	practice	practice_topright_diff	5	662	18	mask.bmp	blankscreen.bmp	practice10.jpg	blankscreen.bmp	circle.bmp
217	practice	practice_topright_same	6	477	18	mask.bmp	blankscreen.bmp	practice4.jpg	blankscreen.bmp	circle.bmp
217	practice	practice_bottomright_diff	7	476	18	mask.bmp	blankscreen.bmp	practice12.jpg	blankscreen.bmp	circle.bmp
217	practice	practice_bottomright_same	8	483	18	mask.bmp	blankscreen.bmp	practice8.jpg	blankscreen.bmp	circle.bmp
217	practice	practice_topleft_diff	9	546	18	mask.bmp	blankscreen.bmp	practice9.jpg	blankscreen.bmp	circle.bmp
217	practice	practice_topleft_same	10	526	18	mask.bmp	blankscreen.bmp	practice2.jpg	blankscreen.bmp	circle.bmp
217	practice	practice_bottomleft_same	11	555	23	mask.bmp	blankscreen.bmp	practice5.jpg	blankscreen.bmp	square.bmp
217	practice	practice_bottomleft_diff	12	607	23	mask.bmp	blankscreen.bmp	practice11.jpg	blankscreen.bmp	circle.bmp
217	real_a	real_topleft_same_a	1	573	23	mask.bmp	blankscreen.bmp	wfn4.bmp	blankscreen.bmp	square.bmp
217	real_a	real_topright_same_a	2	568	23	mask.bmp	blankscreen.bmp	wfd5.bmp	blankscreen.bmp	square.bmp
217	real_a	real_bottomleft_diff_a	3	580	18	mask.bmp	blankscreen.bmp	wfd3.bmp	blankscreen.bmp	circle.bmp
217	real_a	real_bottomleft_diff_a	4	526	23	mask.bmp	blankscreen.bmp	wmn2.bmp	blankscreen.bmp	square.bmp
217	real_a	real_topleft_diff_a	5	619	18	mask.bmp	blankscreen.bmp	wfn3.bmp	blankscreen.bmp	circle.bmp
217	real_a	real_bottomright_diff_a	6	748	23	mask.bmp	blankscreen.bmp	wfn2.bmp	blankscreen.bmp	square.bmp
217	real_a	real_topright_same_a	7	591	18	mask.bmp	blankscreen.bmp	wmn4.bmp	blankscreen.bmp	circle.bmp
217	real_a	real_topleft_same_a	8	689	23	mask.bmp	blankscreen.bmp	wfd4.bmp	blankscreen.bmp	square.bmp
217	real_a	real_bottomright_same_a	9	479	18	mask.bmp	blankscreen.bmp	wmn5.bmp	blankscreen.bmp	square.bmp
217	real_a	real_bottomright_same_a	10	846	18	mask.bmp	blankscreen.bmp	wmd5.bmp	blankscreen.bmp	circle.bmp
217	real_a	real_bottomleft_same_a	11	910	23	mask.bmp	blankscreen.bmp	wmd4.bmp	blankscreen.bmp	square.bmp
217	real_a	real_topright_diff_a	12	602	18	mask.bmp	blankscreen.bmp	wmd3.bmp	blankscreen.bmp	circle.bmp
217	real_a	real_topleft_diff_a	13	668	23	mask.bmp	blankscreen.bmp	wfd1.bmp	blankscreen.bmp	square.bmp
217	real_a	real_topleft_diff_a	14	723	18	mask.bmp	blankscreen.bmp	wmd2.bmp	blankscreen.bmp	circle.bmp
217	real_a	real_bottomleft_same_a	15	463	23	mask.bmp	blankscreen.bmp	wfn5.bmp	blankscreen.bmp	square.bmp
217	real_a	real_bottomleft_diff_a	16	751	23	mask.bmp	blankscreen.bmp	wfn1.bmp	blankscreen.bmp	square.bmp
217	real_a	real_topright_diff_a	17	539	18	mask.bmp	blankscreen.bmp	wmn1.bmp	blankscreen.bmp	circle.bmp
217	real_a	real_bottomright_diff_a	18	1367	23	mask.bmp	blankscreen.bmp	wmn3.bmp	blankscreen.bmp	square.bmp
217	real_a	real_bottomright_diff_a	19	632	23	mask.bmp	blankscreen.bmp	wmd1.bmp	blankscreen.bmp	square.bmp
217	real_a	real_topright_diff_a	20	544	23	mask.bmp	blankscreen.bmp	wfd2.bmp	blankscreen.bmp	square.bmp
217	real_b	real_bottomleft_diff_b	1	742	23	mask.bmp	blankscreen.bmp	wfn7.bmp	blankscreen.bmp	square.bmp
217	real_b	real_bottomleft_same_b	2	625	18	mask.bmp	blankscreen.bmp	wfd9.bmp	blankscreen.bmp	circle.bmp
217	real_b	real_topleft_diff_b	3	746	23	mask.bmp	blankscreen.bmp	wmd8.bmp	blankscreen.bmp	square.bmp
217	real_b	real_topright_same_b	4	430	23	mask.bmp	blankscreen.bmp	wmn10.bmp	blankscreen.bmp	square.bmp
217	real_b	real_bottomleft_same_b	5	663	23	mask.bmp	blankscreen.bmp	wmd10.bmp	blankscreen.bmp	square.bmp
217	real_b	real_topright_diff_b	6	542	18	mask.bmp	blankscreen.bmp	wfn6.bmp	blankscreen.bmp	circle.bmp
217	real_b	real_bottomright_diff_b	7	786	23	mask.bmp	blankscreen.bmp	wfd6.bmp	blankscreen.bmp	square.bmp
217	real_b	real_topleft_diff_b	8	652	18	mask.bmp	blankscreen.bmp	wmn6.bmp	blankscreen.bmp	square.bmp
217	real_b	real_topleft_diff_b	9	772	23	mask.bmp	blankscreen.bmp	wfd7.bmp	blankscreen.bmp	circle.bmp
217	real_b	real_topright_same_b	10	582	18	mask.bmp	blankscreen.bmp	wfn9.bmp	blankscreen.bmp	circle.bmp
217	real_b	real_bottomleft_diff_b	11	609	18	mask.bmp	blankscreen.bmp	wmd6.bmp	blankscreen.bmp	circle.bmp
217	real_b	real_bottomleft_diff_b	12	410	23	mask.bmp	blankscreen.bmp	wmn8.bmp	blankscreen.bmp	square.bmp
217	real_b	real_topright_diff_b	13	756	23	mask.bmp	blankscreen.bmp	wmn7.bmp	blankscreen.bmp	square.bmp
217	real_b	real_topleft_same_b	14	503	18	mask.bmp	blankscreen.bmp	wmd9.bmp	blankscreen.bmp	circle.bmp
217	real_b	real_topleft_same_b	15	653	18	mask.bmp	blankscreen.bmp	wmn9.bmp	blankscreen.bmp	circle.bmp
217	real_b	real_bottomright_diff_b	16	541	23	mask.bmp	blankscreen.bmp	wfn8.bmp	blankscreen.bmp	square.bmp
217	real_b	real_bottomright_same_b	17	762	18	mask.bmp	blankscreen.bmp	wfn10.bmp	blankscreen.bmp	square.bmp
217	real_b	real_bottomright_same_b	18	589	18	mask.bmp	blankscreen.bmp	wfd10.bmp	blankscreen.bmp	circle.bmp
217	real_b	real_topright_diff_b	19	702	18	mask.bmp	blankscreen.bmp	wfd8.bmp	blankscreen.bmp	circle.bmp
217	real_b	real_bottomright_diff_b	20	684	23	mask.bmp	blankscreen.bmp	wmd7.bmp	blankscreen.bmp	square.bmp
217	real_c	real_topright_diff_c	1	562	23	mask.bmp	blankscreen.bmp	wmn3.bmp	blankscreen.bmp	square.bmp
217	real_c	real_bottomleft_diff_c	2	477	18	mask.bmp	blankscreen.bmp	wmd5.bmp	blankscreen.bmp	circle.bmp
217	real_c	real_topleft_same_c	3	1236	23	mask.bmp	blankscreen.bmp	wfd1.bmp	blankscreen.bmp	square.bmp
217	real_c	real_topleft_diff_c	4	843	23	mask.bmp	blankscreen.bmp	wfn4.bmp	blankscreen.bmp	square.bmp
217	real_c	real_bottomleft_diff_c	5	698	23	mask.bmp	blankscreen.bmp	wfd4.bmp	blankscreen.bmp	square.bmp
217	real_c	real_topleft_diff_c	6	760	18	mask.bmp	blankscreen.bmp	wfd3.bmp	blankscreen.bmp	circle.bmp
217	real_c	real_bottomleft_same_c	7	683	18	mask.bmp	blankscreen.bmp	wfd2.bmp	blankscreen.bmp	circle.bmp
217	real_c	real_topright_same_c	8	538	23	mask.bmp	blankscreen.bmp	wfn2.bmp	blankscreen.bmp	square.bmp
217	real_c	real_bottomright_diff_c	9	574	23	mask.bmp	blankscreen.bmp	wmd3.bmp	blankscreen.bmp	square.bmp
217	real_c	real_bottomright_same_c	10	449	23	mask.bmp	blankscreen.bmp	wmn2.bmp	blankscreen.bmp	square.bmp
217	real_c	real_topleft_diff_c	11	506	23	mask.bmp	blankscreen.bmp	wmn5.bmp	blankscreen.bmp	square.bmp
217	real_c	real_bottomleft_same_c	12	503	23	mask.bmp	blankscreen.bmp	wmn1.bmp	blankscreen.bmp	square.bmp
217	real_c	real_topleft_same_c	13	461	18	mask.bmp	blankscreen.bmp	wfn1.bmp	blankscreen.bmp	circle.bmp
217	real_c	real_topright_same_c	14	525	18	mask.bmp	blankscreen.bmp	wmd1.bmp	blankscreen.bmp	circle.bmp
217	real_c	real_topright_diff_c	15	562	18	mask.bmp	blankscreen.bmp	wmd4.bmp	blankscreen.bmp	circle.bmp
217	real_c	real_bottomright_same_c	16	533	18	mask.bmp	blankscreen.bmp	wmd2.bmp	blankscreen.bmp	square.bmp
217	real_c	real_bottomright_diff_c	17	626	18	mask.bmp	blankscreen.bmp	wmn4.bmp	blankscreen.bmp	circle.bmp
217	real_c	real_bottomleft_diff_c	18	771	23	mask.bmp	blankscreen.bmp	wfn3.bmp	blankscreen.bmp	square.bmp
217	real_c	real_topright_diff_c	19	573	18	mask.bmp	blankscreen.bmp	wfn5.bmp	blankscreen.bmp	circle.bmp
217	real_c	real_bottomright_diff_c	20	680	18	mask.bmp	blankscreen.bmp	wfd5.bmp	blankscreen.bmp	circle.bmp
217	real_d	real_topright_diff_d	1	573	18	mask.bmp	blankscreen.bmp	wfn8.bmp	blankscreen.bmp	circle.bmp
217	real_d	real_topleft_diff_d	2	488	18	mask.bmp	blankscreen.bmp	wmd9.bmp	blankscreen.bmp	circle.bmp
217	real_d	real_bottomright_same_d	3	679	23	mask.bmp	blankscreen.bmp	wfn7.bmp	blankscreen.bmp	square.bmp
217	real_d	real_bottomright_diff_d	4	684	23	mask.bmp	blankscreen.bmp	wfn9.bmp	blankscreen.bmp	square.bmp
217	real_d	real_bottomleft_diff_d	5	475	23	mask.bmp	blankscreen.bmp	wmn9.bmp	blankscreen.bmp	square.bmp
217	real_d	real_bottomright_same_d	6	754	23	mask.bmp	blankscreen.bmp	wfd7.bmp	blankscreen.bmp	square.bmp
217	real_d	real_topleft_diff_d	7	565	23	mask.bmp	blankscreen.bmp	wmn8.bmp	blankscreen.bmp	square.bmp
217	real_d	real_topleft_same_d	8	576	23	mask.bmp	blankscreen.bmp	wmn6.bmp	blankscreen.bmp	square.bmp
217	real_d	real_topleft_same_d	9	427	18	mask.bmp	blankscreen.bmp	wmd6.bmp	blankscreen.bmp	circle.bmp
217	real_d	real_topright_diff_d	10	604	18	mask.bmp	blankscreen.bmp	wfd9.bmp	blankscreen.bmp	circle.bmp
217	real_d	real_topleft_diff_d	11	566	18	mask.bmp	blankscreen.bmp	wfn10.bmp	blankscreen.bmp	circle.bmp
217	real_d	real_bottomleft_diff_d	12	521	23	mask.bmp	blankscreen.bmp	wmd8.bmp	blankscreen.bmp	square.bmp
217	real_d	real_bottomleft_same_d	13	798	23	mask.bmp	blankscreen.bmp	wfn6.bmp	blankscreen.bmp	square.bmp
217	real_d	real_topright_same_d	14	647	23	mask.bmp	blankscreen.bmp	wmd7.bmp	blankscreen.bmp	square.bmp
217	real_d	real_bottomleft_diff_d	15	511	23	mask.bmp	blankscreen.bmp	wfd10.bmp	blankscreen.bmp	square.bmp
217	real_d	real_topright_same_d	16	621	18	mask.bmp	blankscreen.bmp	wfd6.bmp	blankscreen.bmp	circle.bmp
217	real_d	real_topright_diff_d	17	886	18	mask.bmp	blankscreen.bmp	wmd10.bmp	blankscreen.bmp	circle.bmp
217	real_d	real_bottomleft_same_d	18	619	18	mask.bmp	blankscreen.bmp	wmn7.bmp	blankscreen.bmp	circle.bmp
217	real_d	real_bottomright_diff_d	19	461	18	mask.bmp	blankscreen.bmp	wfd8.bmp	blankscreen.bmp	circle.bmp
217	real_d	real_bottomright_diff_d	20	460	18	mask.bmp	blankscreen.bmp	wmn10.bmp	blankscreen.bmp	square.bmp
224	practice	practice_topleft_same	1	3822	18	mask.bmp	blankscreen.bmp	practice2.jpg	blankscreen.bmp	square.bmp
224	practice	practice_topright_same	2	2782	23	mask.bmp	blankscreen.bmp	practice3.jpg	blankscreen.bmp	square.bmp
224	practice	practice_topright_diff	3	66	23	mask.bmp	blankscreen.bmp	practice10.jpg	blankscreen.bmp	square.bmp
224	practice	practice_bottomleft_diff	4	1491	23	mask.bmp	blankscreen.bmp	practice11.jpg	blankscreen.bmp	square.bmp
224	practice	practice_bottomright_diff	5	846	18	mask.bmp	blankscreen.bmp	practice12.jpg	blankscreen.bmp	square.bmp
224	practice	practice_bottomleft_same	6	4061	23	mask.bmp	blankscreen.bmp	practice5.jpg	blankscreen.bmp	square.bmp
224	practice	practice_bottomright_same	7	19	23	mask.bmp	blankscreen.bmp	practice7.jpg	blankscreen.bmp	circle.bmp
224	practice	practice_bottomleft_same	8	702	23	mask.bmp	blankscreen.bmp	practice6.jpg	blankscreen.bmp	square.bmp
224	practice	practice_bottomright_same	9	211	23	mask.bmp	blankscreen.bmp	practice8.jpg	blankscreen.bmp	square.bmp
224	practice	practice_topleft_same	10	558	23	mask.bmp	blankscreen.bmp	practice1.jpg	blankscreen.bmp	square.bmp
224	practice	practice_topleft_diff	11	481	23	mask.bmp	blankscreen.bmp	practice9.jpg	blankscreen.bmp	square.bmp
224	practice	practice_topright_same	12	488	18	mask.bmp	blankscreen.bmp	practice4.jpg	blankscreen.bmp	circle.bmp
224	real_a	real_topleft_diff_a	1	1859	23	mask.bmp	blankscreen.bmp	wfd1.bmp	blankscreen.bmp	square.bmp
224	real_a	real_bottomleft_same_a	2	38	23	mask.bmp	blankscreen.bmp	wmd4.bmp	blankscreen.bmp	circle.bmp
224	real_a	real_topright_diff_a	3	728	23	mask.bmp	blankscreen.bmp	wmn1.bmp	blankscreen.bmp	square.bmp
224	real_a	real_topleft_diff_a	4	580	23	mask.bmp	blankscreen.bmp	wfn3.bmp	blankscreen.bmp	square.bmp
224	real_a	real_bottomright_diff_a	5	1079	23	mask.bmp	blankscreen.bmp	wfn2.bmp	blankscreen.bmp	square.bmp
224	real_a	real_bottomleft_diff_a	6	572	23	mask.bmp	blankscreen.bmp	wfn1.bmp	blankscreen.bmp	square.bmp
224	real_a	real_topright_same_a	7	903	23	mask.bmp	blankscreen.bmp	wfd5.bmp	blankscreen.bmp	square.bmp
224	real_a	real_topright_diff_a	8	436	18	mask.bmp	blankscreen.bmp	wfd2.bmp	blankscreen.bmp	circle.bmp
224	real_a	real_bottomright_diff_a	9	909	23	mask.bmp	blankscreen.bmp	wmn3.bmp	blankscreen.bmp	square.bmp
224	real_a	real_bottomright_diff_a	10	585	18	mask.bmp	blankscreen.bmp	wmd1.bmp	blankscreen.bmp	circle.bmp
224	real_a	real_topleft_diff_a	11	812	23	mask.bmp	blankscreen.bmp	wmd2.bmp	blankscreen.bmp	square.bmp
224	real_a	real_bottomright_same_a	12	589	18	mask.bmp	blankscreen.bmp	wmd5.bmp	blankscreen.bmp	circle.bmp
224	real_a	real_topright_diff_a	13	743	18	mask.bmp	blankscreen.bmp	wmd3.bmp	blankscreen.bmp	circle.bmp
224	real_a	real_topleft_same_a	14	562	18	mask.bmp	blankscreen.bmp	wfd4.bmp	blankscreen.bmp	circle.bmp
224	real_a	real_bottomright_same_a	15	590	18	mask.bmp	blankscreen.bmp	wmn5.bmp	blankscreen.bmp	circle.bmp
224	real_a	real_bottomleft_diff_a	16	616	18	mask.bmp	blankscreen.bmp	wfd3.bmp	blankscreen.bmp	circle.bmp
224	real_a	real_bottomleft_diff_a	17	481	18	mask.bmp	blankscreen.bmp	wmn2.bmp	blankscreen.bmp	circle.bmp
224	real_a	real_bottomleft_same_a	18	752	23	mask.bmp	blankscreen.bmp	wfn5.bmp	blankscreen.bmp	square.bmp
224	real_a	real_topright_same_a	19	804	23	mask.bmp	blankscreen.bmp	wmn4.bmp	blankscreen.bmp	square.bmp
224	real_a	real_topleft_same_a	20	1349	23	mask.bmp	blankscreen.bmp	wfn4.bmp	blankscreen.bmp	square.bmp
224	real_b	real_topright_diff_b	1	1029	23	mask.bmp	blankscreen.bmp	wfn6.bmp	blankscreen.bmp	square.bmp
224	real_b	real_topleft_diff_b	2	580	23	mask.bmp	blankscreen.bmp	wfd7.bmp	blankscreen.bmp	square.bmp
224	real_b	real_bottomleft_diff_b	3	471	23	mask.bmp	blankscreen.bmp	wmn8.bmp	blankscreen.bmp	square.bmp
224	real_b	real_bottomleft_same_b	4	606	18	mask.bmp	blankscreen.bmp	wmd10.bmp	blankscreen.bmp	circle.bmp
224	real_b	real_bottomright_same_b	5	639	23	mask.bmp	blankscreen.bmp	wfn10.bmp	blankscreen.bmp	square.bmp
224	real_b	real_topright_same_b	6	631	18	mask.bmp	blankscreen.bmp	wmn10.bmp	blankscreen.bmp	circle.bmp
224	real_b	real_topleft_diff_b	7	768	23	mask.bmp	blankscreen.bmp	wmn6.bmp	blankscreen.bmp	square.bmp
224	real_b	real_topright_same_b	8	602	18	mask.bmp	blankscreen.bmp	wfn9.bmp	blankscreen.bmp	circle.bmp
224	real_b	real_bottomleft_diff_b	9	677	18	mask.bmp	blankscreen.bmp	wfn7.bmp	blankscreen.bmp	circle.bmp
224	real_b	real_bottomright_diff_b	10	1443	18	mask.bmp	blankscreen.bmp	wfd6.bmp	blankscreen.bmp	circle.bmp
224	real_b	real_bottomright_diff_b	11	649	23	mask.bmp	blankscreen.bmp	wfn8.bmp	blankscreen.bmp	square.bmp
224	real_b	real_bottomleft_same_b	12	624	18	mask.bmp	blankscreen.bmp	wfd9.bmp	blankscreen.bmp	circle.bmp
224	real_b	real_bottomleft_diff_b	13	545	23	mask.bmp	blankscreen.bmp	wmd6.bmp	blankscreen.bmp	square.bmp
224	real_b	real_bottomright_same_b	14	3149	23	mask.bmp	blankscreen.bmp	wfd10.bmp	blankscreen.bmp	square.bmp
224	real_b	real_topright_diff_b	15	538	18	mask.bmp	blankscreen.bmp	wmn7.bmp	blankscreen.bmp	circle.bmp
224	real_b	real_topleft_same_b	16	694	23	mask.bmp	blankscreen.bmp	wmd9.bmp	blankscreen.bmp	square.bmp
224	real_b	real_topleft_same_b	17	643	18	mask.bmp	blankscreen.bmp	wmn9.bmp	blankscreen.bmp	circle.bmp
224	real_b	real_bottomright_diff_b	18	595	18	mask.bmp	blankscreen.bmp	wmd7.bmp	blankscreen.bmp	circle.bmp
224	real_b	real_topright_diff_b	19	614	18	mask.bmp	blankscreen.bmp	wfd8.bmp	blankscreen.bmp	circle.bmp
224	real_b	real_topleft_diff_b	20	847	18	mask.bmp	blankscreen.bmp	wmd8.bmp	blankscreen.bmp	circle.bmp
224	real_c	real_topright_same_c	1	1699	23	mask.bmp	blankscreen.bmp	wfn2.bmp	blankscreen.bmp	square.bmp
224	real_c	real_bottomright_same_c	2	566	18	mask.bmp	blankscreen.bmp	wmn2.bmp	blankscreen.bmp	circle.bmp
224	real_c	real_topright_diff_c	3	617	23	mask.bmp	blankscreen.bmp	wfn5.bmp	blankscreen.bmp	square.bmp
224	real_c	real_topright_diff_c	4	579	18	mask.bmp	blankscreen.bmp	wmd4.bmp	blankscreen.bmp	circle.bmp
224	real_c	real_bottomleft_diff_c	5	877	23	mask.bmp	blankscreen.bmp	wmd5.bmp	blankscreen.bmp	square.bmp
224	real_c	real_bottomright_same_c	6	651	23	mask.bmp	blankscreen.bmp	wmd2.bmp	blankscreen.bmp	square.bmp
224	real_c	real_topleft_diff_c	7	619	18	mask.bmp	blankscreen.bmp	wmn5.bmp	blankscreen.bmp	circle.bmp
224	real_c	real_topleft_same_c	8	661	18	mask.bmp	blankscreen.bmp	wfn1.bmp	blankscreen.bmp	circle.bmp
224	real_c	real_bottomleft_diff_c	9	1164	18	mask.bmp	blankscreen.bmp	wfn3.bmp	blankscreen.bmp	circle.bmp
224	real_c	real_topleft_diff_c	10	1045	23	mask.bmp	blankscreen.bmp	wfd3.bmp	blankscreen.bmp	circle.bmp
224	real_c	real_bottomleft_diff_c	11	1068	18	mask.bmp	blankscreen.bmp	wfd4.bmp	blankscreen.bmp	circle.bmp
224	real_c	real_bottomleft_same_c	12	1314	18	mask.bmp	blankscreen.bmp	wfd2.bmp	blankscreen.bmp	circle.bmp
224	real_c	real_bottomright_diff_c	13	781	23	mask.bmp	blankscreen.bmp	wfd5.bmp	blankscreen.bmp	square.bmp
224	real_c	real_topright_diff_c	14	671	18	mask.bmp	blankscreen.bmp	wmn3.bmp	blankscreen.bmp	circle.bmp
224	real_c	real_topleft_same_c	15	814	23	mask.bmp	blankscreen.bmp	wfd1.bmp	blankscreen.bmp	square.bmp
224	real_c	real_bottomright_diff_c	16	750	18	mask.bmp	blankscreen.bmp	wmd3.bmp	blankscreen.bmp	circle.bmp
224	real_c	real_topright_same_c	17	594	23	mask.bmp	blankscreen.bmp	wmd1.bmp	blankscreen.bmp	square.bmp
224	real_c	real_bottomleft_same_c	18	1820	23	mask.bmp	blankscreen.bmp	wmn1.bmp	blankscreen.bmp	square.bmp
224	real_c	real_bottomright_diff_c	19	706	18	mask.bmp	blankscreen.bmp	wmn4.bmp	blankscreen.bmp	circle.bmp
224	real_c	real_topleft_diff_c	20	1287	23	mask.bmp	blankscreen.bmp	wfn4.bmp	blankscreen.bmp	square.bmp
224	real_d	real_topright_same_d	1	594	18	mask.bmp	blankscreen.bmp	wfd6.bmp	blankscreen.bmp	circle.bmp
224	real_d	real_bottomleft_diff_d	2	1044	18	mask.bmp	blankscreen.bmp	wfd10.bmp	blankscreen.bmp	circle.bmp
224	real_d	real_bottomright_diff_d	3	939	18	mask.bmp	blankscreen.bmp	wfd8.bmp	blankscreen.bmp	circle.bmp
224	real_d	real_topleft_diff_d	4	734	18	mask.bmp	blankscreen.bmp	wmd9.bmp	blankscreen.bmp	circle.bmp
224	real_d	real_topright_diff_d	5	970	23	mask.bmp	blankscreen.bmp	wmd10.bmp	blankscreen.bmp	square.bmp
224	real_d	real_bottomleft_diff_d	6	644	23	mask.bmp	blankscreen.bmp	wmd8.bmp	blankscreen.bmp	square.bmp
224	real_d	real_topright_diff_d	7	988	18	mask.bmp	blankscreen.bmp	wfn8.bmp	blankscreen.bmp	circle.bmp
224	real_d	real_topleft_diff_d	8	1469	18	mask.bmp	blankscreen.bmp	wmn8.bmp	blankscreen.bmp	circle.bmp
224	real_d	real_bottomleft_diff_d	9	666	23	mask.bmp	blankscreen.bmp	wmn9.bmp	blankscreen.bmp	square.bmp
224	real_d	real_topright_diff_d	10	665	23	mask.bmp	blankscreen.bmp	wfd9.bmp	blankscreen.bmp	square.bmp
224	real_d	real_topleft_same_d	11	992	23	mask.bmp	blankscreen.bmp	wmn6.bmp	blankscreen.bmp	square.bmp
224	real_d	real_topleft_diff_d	12	841	23	mask.bmp	blankscreen.bmp	wfn10.bmp	blankscreen.bmp	square.bmp
224	real_d	real_bottomright_same_d	13	1216	18	mask.bmp	blankscreen.bmp	wfd7.bmp	blankscreen.bmp	circle.bmp
224	real_d	real_topleft_same_d	14	1344	18	mask.bmp	blankscreen.bmp	wmd6.bmp	blankscreen.bmp	circle.bmp
224	real_d	real_bottomleft_same_d	15	426	18	mask.bmp	blankscreen.bmp	wfn6.bmp	blankscreen.bmp	circle.bmp
224	real_d	real_bottomright_diff_d	16	627	23	mask.bmp	blankscreen.bmp	wmn10.bmp	blankscreen.bmp	square.bmp
224	real_d	real_topright_same_d	17	676	18	mask.bmp	blankscreen.bmp	wmd7.bmp	blankscreen.bmp	circle.bmp
224	real_d	real_bottomright_diff_d	18	618	23	mask.bmp	blankscreen.bmp	wfn9.bmp	blankscreen.bmp	square.bmp
224	real_d	real_bottomright_same_d	19	571	18	mask.bmp	blankscreen.bmp	wfn7.bmp	blankscreen.bmp	circle.bmp
224	real_d	real_bottomleft_same_d	20	766	23	mask.bmp	blankscreen.bmp	wmn7.bmp	blankscreen.bmp	square.bmp
230	practice	practice_topleft_same	1	14517	18	mask.bmp	blankscreen.bmp	practice2.jpg	blankscreen.bmp	square.bmp
230	practice	practice_topleft_diff	2	53938	18	mask.bmp	blankscreen.bmp	practice9.jpg	blankscreen.bmp	square.bmp
230	practice	practice_topright_same	3	95174	23	mask.bmp	blankscreen.bmp	practice4.jpg	blankscreen.bmp	square.bmp
230	practice	practice_bottomleft_same	4	38675	18	mask.bmp	blankscreen.bmp	practice6.jpg	blankscreen.bmp	circle.bmp
230	practice	practice_topright_diff	5	1645	23	mask.bmp	blankscreen.bmp	practice10.jpg	blankscreen.bmp	circle.bmp
230	practice	practice_topleft_same	6	874	23	mask.bmp	blankscreen.bmp	practice1.jpg	blankscreen.bmp	circle.bmp
230	practice	practice_bottomright_same	7	1448	23	mask.bmp	blankscreen.bmp	practice7.jpg	blankscreen.bmp	square.bmp
230	practice	practice_bottomright_diff	8	1309	18	mask.bmp	blankscreen.bmp	practice12.jpg	blankscreen.bmp	circle.bmp
230	practice	practice_topright_same	9	1688	23	mask.bmp	blankscreen.bmp	practice3.jpg	blankscreen.bmp	square.bmp
230	practice	practice_bottomleft_same	10	1540	18	mask.bmp	blankscreen.bmp	practice5.jpg	blankscreen.bmp	circle.bmp
230	practice	practice_bottomleft_diff	11	1765	18	mask.bmp	blankscreen.bmp	practice11.jpg	blankscreen.bmp	circle.bmp
230	practice	practice_bottomright_same	12	669	23	mask.bmp	blankscreen.bmp	practice8.jpg	blankscreen.bmp	square.bmp
230	real_a	real_bottomright_diff_a	1	2538	18	mask.bmp	blankscreen.bmp	wmd1.bmp	blankscreen.bmp	circle.bmp
230	real_a	real_bottomleft_diff_a	2	1512	18	mask.bmp	blankscreen.bmp	wfn1.bmp	blankscreen.bmp	circle.bmp
230	real_a	real_topright_diff_a	3	1083	23	mask.bmp	blankscreen.bmp	wmn1.bmp	blankscreen.bmp	square.bmp
230	real_a	real_topright_diff_a	4	1472	23	mask.bmp	blankscreen.bmp	wmd3.bmp	blankscreen.bmp	square.bmp
230	real_a	real_bottomleft_diff_a	5	1221	23	mask.bmp	blankscreen.bmp	wfd3.bmp	blankscreen.bmp	square.bmp
230	real_a	real_bottomright_diff_a	6	1045	18	mask.bmp	blankscreen.bmp	wfn2.bmp	blankscreen.bmp	circle.bmp
230	real_a	real_bottomleft_diff_a	7	1043	23	mask.bmp	blankscreen.bmp	wmn2.bmp	blankscreen.bmp	square.bmp
230	real_a	real_topleft_same_a	8	962	23	mask.bmp	blankscreen.bmp	wfn4.bmp	blankscreen.bmp	square.bmp
230	real_a	real_topright_same_a	9	924	23	mask.bmp	blankscreen.bmp	wmn4.bmp	blankscreen.bmp	square.bmp
230	real_a	real_bottomleft_same_a	10	1304	18	mask.bmp	blankscreen.bmp	wmd4.bmp	blankscreen.bmp	circle.bmp
230	real_a	real_bottomright_same_a	11	852	18	mask.bmp	blankscreen.bmp	wmn5.bmp	blankscreen.bmp	circle.bmp
230	real_a	real_bottomright_same_a	12	1043	23	mask.bmp	blankscreen.bmp	wmd5.bmp	blankscreen.bmp	square.bmp
230	real_a	real_topleft_diff_a	13	930	18	mask.bmp	blankscreen.bmp	wmd2.bmp	blankscreen.bmp	circle.bmp
230	real_a	real_topleft_same_a	14	2142	23	mask.bmp	blankscreen.bmp	wfd4.bmp	blankscreen.bmp	square.bmp
230	real_a	real_topright_same_a	15	1062	23	mask.bmp	blankscreen.bmp	wfd5.bmp	blankscreen.bmp	square.bmp
230	real_a	real_topleft_diff_a	16	1204	23	mask.bmp	blankscreen.bmp	wfn3.bmp	blankscreen.bmp	square.bmp
230	real_a	real_bottomright_diff_a	17	860	18	mask.bmp	blankscreen.bmp	wmn3.bmp	blankscreen.bmp	circle.bmp
230	real_a	real_topleft_diff_a	18	875	23	mask.bmp	blankscreen.bmp	wfd1.bmp	blankscreen.bmp	square.bmp
230	real_a	real_topright_diff_a	19	1264	18	mask.bmp	blankscreen.bmp	wfd2.bmp	blankscreen.bmp	circle.bmp
230	real_a	real_bottomleft_same_a	20	902	23	mask.bmp	blankscreen.bmp	wfn5.bmp	blankscreen.bmp	square.bmp
230	real_b	real_bottomright_same_b	1	801	23	mask.bmp	blankscreen.bmp	wfd10.bmp	blankscreen.bmp	square.bmp
230	real_b	real_bottomleft_diff_b	2	803	18	mask.bmp	blankscreen.bmp	wmn8.bmp	blankscreen.bmp	circle.bmp
230	real_b	real_topleft_diff_b	3	724	23	mask.bmp	blankscreen.bmp	wmd8.bmp	blankscreen.bmp	square.bmp
230	real_b	real_bottomright_diff_b	4	752	23	mask.bmp	blankscreen.bmp	wmd7.bmp	blankscreen.bmp	square.bmp
230	real_b	real_bottomleft_same_b	5	924	23	mask.bmp	blankscreen.bmp	wmd10.bmp	blankscreen.bmp	square.bmp
230	real_b	real_topright_diff_b	6	920	18	mask.bmp	blankscreen.bmp	wfd8.bmp	blankscreen.bmp	circle.bmp
230	real_b	real_topleft_same_b	7	884	23	mask.bmp	blankscreen.bmp	wmn9.bmp	blankscreen.bmp	square.bmp
230	real_b	real_bottomleft_diff_b	8	1738	23	mask.bmp	blankscreen.bmp	wfn7.bmp	blankscreen.bmp	circle.bmp
230	real_b	real_topright_same_b	9	963	23	mask.bmp	blankscreen.bmp	wmn10.bmp	blankscreen.bmp	square.bmp
230	real_b	real_bottomleft_diff_b	10	877	18	mask.bmp	blankscreen.bmp	wmd6.bmp	blankscreen.bmp	square.bmp
230	real_b	real_topleft_diff_b	11	1084	23	mask.bmp	blankscreen.bmp	wfd7.bmp	blankscreen.bmp	square.bmp
230	real_b	real_topright_same_b	12	2545	23	mask.bmp	blankscreen.bmp	wfn9.bmp	blankscreen.bmp	square.bmp
230	real_b	real_topleft_same_b	13	1487	18	mask.bmp	blankscreen.bmp	wmd9.bmp	blankscreen.bmp	circle.bmp
230	real_b	real_topright_diff_b	14	715	23	mask.bmp	blankscreen.bmp	wmn7.bmp	blankscreen.bmp	square.bmp
230	real_b	real_bottomright_same_b	15	1400	18	mask.bmp	blankscreen.bmp	wfn10.bmp	blankscreen.bmp	circle.bmp
230	real_b	real_bottomleft_same_b	16	920	23	mask.bmp	blankscreen.bmp	wfd9.bmp	blankscreen.bmp	square.bmp
230	real_b	real_topright_diff_b	17	1052	18	mask.bmp	blankscreen.bmp	wfn6.bmp	blankscreen.bmp	square.bmp
230	real_b	real_topleft_diff_b	18	1403	18	mask.bmp	blankscreen.bmp	wmn6.bmp	blankscreen.bmp	square.bmp
230	real_b	real_bottomright_diff_b	19	1194	18	mask.bmp	blankscreen.bmp	wfd6.bmp	blankscreen.bmp	circle.bmp
230	real_b	real_bottomright_diff_b	20	1226	23	mask.bmp	blankscreen.bmp	wfn8.bmp	blankscreen.bmp	square.bmp
230	real_c	real_bottomright_diff_c	1	878	23	mask.bmp	blankscreen.bmp	wmn4.bmp	blankscreen.bmp	square.bmp
230	real_c	real_topleft_diff_c	2	1196	18	mask.bmp	blankscreen.bmp	wfd3.bmp	blankscreen.bmp	circle.bmp
230	real_c	real_topright_same_c	3	1060	18	mask.bmp	blankscreen.bmp	wfn2.bmp	blankscreen.bmp	circle.bmp
230	real_c	real_topleft_same_c	4	1082	23	mask.bmp	blankscreen.bmp	wfn1.bmp	blankscreen.bmp	square.bmp
230	real_c	real_bottomright_diff_c	5	1176	18	mask.bmp	blankscreen.bmp	wfd5.bmp	blankscreen.bmp	circle.bmp
230	real_c	real_topright_diff_c	6	952	18	mask.bmp	blankscreen.bmp	wfn5.bmp	blankscreen.bmp	circle.bmp
230	real_c	real_bottomleft_diff_c	7	1244	18	mask.bmp	blankscreen.bmp	wfn3.bmp	blankscreen.bmp	circle.bmp
230	real_c	real_bottomright_same_c	8	1178	18	mask.bmp	blankscreen.bmp	wmd2.bmp	blankscreen.bmp	circle.bmp
230	real_c	real_bottomleft_same_c	9	890	23	mask.bmp	blankscreen.bmp	wmn1.bmp	blankscreen.bmp	square.bmp
230	real_c	real_bottomright_same_c	10	968	23	mask.bmp	blankscreen.bmp	wmn2.bmp	blankscreen.bmp	square.bmp
230	real_c	real_topright_same_c	11	842	18	mask.bmp	blankscreen.bmp	wmd1.bmp	blankscreen.bmp	circle.bmp
230	real_c	real_bottomright_diff_c	12	921	18	mask.bmp	blankscreen.bmp	wmd3.bmp	blankscreen.bmp	circle.bmp
230	real_c	real_bottomleft_diff_c	13	902	23	mask.bmp	blankscreen.bmp	wmd5.bmp	blankscreen.bmp	square.bmp
230	real_c	real_topright_diff_c	14	995	23	mask.bmp	blankscreen.bmp	wmn3.bmp	blankscreen.bmp	square.bmp
230	real_c	real_topleft_same_c	15	2748	23	mask.bmp	blankscreen.bmp	wfd1.bmp	blankscreen.bmp	square.bmp
230	real_c	real_topleft_diff_c	16	801	18	mask.bmp	blankscreen.bmp	wmn5.bmp	blankscreen.bmp	circle.bmp
230	real_c	real_topright_diff_c	17	843	23	mask.bmp	blankscreen.bmp	wmd4.bmp	blankscreen.bmp	square.bmp
230	real_c	real_bottomleft_diff_c	18	1218	23	mask.bmp	blankscreen.bmp	wfd4.bmp	blankscreen.bmp	square.bmp
230	real_c	real_bottomleft_same_c	19	1361	23	mask.bmp	blankscreen.bmp	wfd2.bmp	blankscreen.bmp	square.bmp
230	real_c	real_topleft_diff_c	20	610	18	mask.bmp	blankscreen.bmp	wfn4.bmp	blankscreen.bmp	circle.bmp
230	real_d	real_bottomleft_same_d	1	785	23	mask.bmp	blankscreen.bmp	wfn6.bmp	blankscreen.bmp	square.bmp
230	real_d	real_bottomright_diff_d	2	707	23	mask.bmp	blankscreen.bmp	wfd8.bmp	blankscreen.bmp	square.bmp
230	real_d	real_topright_same_d	3	808	18	mask.bmp	blankscreen.bmp	wmd7.bmp	blankscreen.bmp	circle.bmp
230	real_d	real_topleft_same_d	4	753	23	mask.bmp	blankscreen.bmp	wmd6.bmp	blankscreen.bmp	square.bmp
230	real_d	real_topright_diff_d	5	644	23	mask.bmp	blankscreen.bmp	wmd10.bmp	blankscreen.bmp	square.bmp
230	real_d	real_bottomright_same_d	6	700	23	mask.bmp	blankscreen.bmp	wfn7.bmp	blankscreen.bmp	square.bmp
230	real_d	real_topright_diff_d	7	706	18	mask.bmp	blankscreen.bmp	wfn8.bmp	blankscreen.bmp	circle.bmp
230	real_d	real_topleft_same_d	8	823	18	mask.bmp	blankscreen.bmp	wmn6.bmp	blankscreen.bmp	circle.bmp
230	real_d	real_bottomright_diff_d	9	775	18	mask.bmp	blankscreen.bmp	wmn10.bmp	blankscreen.bmp	circle.bmp
230	real_d	real_bottomright_same_d	10	729	23	mask.bmp	blankscreen.bmp	wfd7.bmp	blankscreen.bmp	square.bmp
230	real_d	real_topleft_diff_d	11	589	18	mask.bmp	blankscreen.bmp	wmd9.bmp	blankscreen.bmp	circle.bmp
230	real_d	real_topleft_diff_d	12	719	23	mask.bmp	blankscreen.bmp	wmn8.bmp	blankscreen.bmp	square.bmp
230	real_d	real_topright_same_d	13	748	23	mask.bmp	blankscreen.bmp	wfd6.bmp	blankscreen.bmp	square.bmp
230	real_d	real_bottomleft_diff_d	14	664	23	mask.bmp	blankscreen.bmp	wfd10.bmp	blankscreen.bmp	square.bmp
230	real_d	real_bottomleft_diff_d	15	727	23	mask.bmp	blankscreen.bmp	wmn9.bmp	blankscreen.bmp	square.bmp
230	real_d	real_bottomright_diff_d	16	603	23	mask.bmp	blankscreen.bmp	wfn9.bmp	blankscreen.bmp	square.bmp
230	real_d	real_topleft_diff_d	17	725	23	mask.bmp	blankscreen.bmp	wfn10.bmp	blankscreen.bmp	square.bmp
230	real_d	real_bottomleft_diff_d	18	698	18	mask.bmp	blankscreen.bmp	wmd8.bmp	blankscreen.bmp	circle.bmp
230	real_d	real_bottomleft_same_d	19	775	18	mask.bmp	blankscreen.bmp	wmn7.bmp	blankscreen.bmp	circle.bmp
230	real_d	real_topright_diff_d	20	594	23	mask.bmp	blankscreen.bmp	wfd9.bmp	blankscreen.bmp	square.bmp
232	practice	practice_topleft_same	1	1843	23	mask.bmp	blankscreen.bmp	practice1.jpg	blankscreen.bmp	circle.bmp
232	practice	practice_topright_diff	2	727	18	mask.bmp	blankscreen.bmp	practice10.jpg	blankscreen.bmp	square.bmp
232	practice	practice_bottomright_diff	3	508	23	mask.bmp	blankscreen.bmp	practice12.jpg	blankscreen.bmp	circle.bmp
232	practice	practice_topright_same	4	257	18	mask.bmp	blankscreen.bmp	practice3.jpg	blankscreen.bmp	circle.bmp
232	practice	practice_topleft_same	5	682	18	mask.bmp	blankscreen.bmp	practice2.jpg	blankscreen.bmp	circle.bmp
232	practice	practice_topright_same	6	384	23	mask.bmp	blankscreen.bmp	practice4.jpg	blankscreen.bmp	circle.bmp
232	practice	practice_bottomright_same	7	684	18	mask.bmp	blankscreen.bmp	practice7.jpg	blankscreen.bmp	circle.bmp
232	practice	practice_bottomleft_same	8	578	23	mask.bmp	blankscreen.bmp	practice5.jpg	blankscreen.bmp	square.bmp
232	practice	practice_topleft_diff	9	2270	18	mask.bmp	blankscreen.bmp	practice9.jpg	blankscreen.bmp	circle.bmp
232	practice	practice_bottomleft_same	10	831	18	mask.bmp	blankscreen.bmp	practice6.jpg	blankscreen.bmp	circle.bmp
232	practice	practice_bottomleft_diff	11	639	18	mask.bmp	blankscreen.bmp	practice11.jpg	blankscreen.bmp	circle.bmp
232	practice	practice_bottomright_same	12	447	23	mask.bmp	blankscreen.bmp	practice8.jpg	blankscreen.bmp	square.bmp
232	real_a	real_topright_same_a	1	558	23	mask.bmp	blankscreen.bmp	wfd5.bmp	blankscreen.bmp	square.bmp
232	real_a	real_bottomright_same_a	2	545	18	mask.bmp	blankscreen.bmp	wmn5.bmp	blankscreen.bmp	square.bmp
232	real_a	real_topright_diff_a	3	533	23	mask.bmp	blankscreen.bmp	wmd3.bmp	blankscreen.bmp	square.bmp
232	real_a	real_topleft_same_a	4	842	23	mask.bmp	blankscreen.bmp	wfd4.bmp	blankscreen.bmp	square.bmp
232	real_a	real_bottomleft_diff_a	5	497	23	mask.bmp	blankscreen.bmp	wfd3.bmp	blankscreen.bmp	square.bmp
232	real_a	real_bottomleft_same_a	6	504	23	mask.bmp	blankscreen.bmp	wmd4.bmp	blankscreen.bmp	square.bmp
232	real_a	real_topright_diff_a	7	613	18	mask.bmp	blankscreen.bmp	wfd2.bmp	blankscreen.bmp	circle.bmp
232	real_a	real_topleft_same_a	8	534	18	mask.bmp	blankscreen.bmp	wfn4.bmp	blankscreen.bmp	circle.bmp
232	real_a	real_topleft_diff_a	9	588	23	mask.bmp	blankscreen.bmp	wfd1.bmp	blankscreen.bmp	square.bmp
232	real_a	real_bottomright_diff_a	10	565	23	mask.bmp	blankscreen.bmp	wmd1.bmp	blankscreen.bmp	square.bmp
232	real_a	real_topleft_diff_a	11	345	23	mask.bmp	blankscreen.bmp	wmd2.bmp	blankscreen.bmp	square.bmp
232	real_a	real_topleft_diff_a	12	734	18	mask.bmp	blankscreen.bmp	wfn3.bmp	blankscreen.bmp	circle.bmp
232	real_a	real_bottomright_diff_a	13	522	18	mask.bmp	blankscreen.bmp	wmn3.bmp	blankscreen.bmp	square.bmp
232	real_a	real_bottomleft_same_a	14	639	18	mask.bmp	blankscreen.bmp	wfn5.bmp	blankscreen.bmp	circle.bmp
232	real_a	real_bottomright_same_a	15	735	18	mask.bmp	blankscreen.bmp	wmd5.bmp	blankscreen.bmp	circle.bmp
232	real_a	real_topright_diff_a	16	611	23	mask.bmp	blankscreen.bmp	wmn1.bmp	blankscreen.bmp	square.bmp
232	real_a	real_bottomleft_diff_a	17	557	23	mask.bmp	blankscreen.bmp	wfn1.bmp	blankscreen.bmp	square.bmp
232	real_a	real_bottomright_diff_a	18	592	23	mask.bmp	blankscreen.bmp	wfn2.bmp	blankscreen.bmp	square.bmp
232	real_a	real_topright_same_a	19	458	23	mask.bmp	blankscreen.bmp	wmn4.bmp	blankscreen.bmp	square.bmp
232	real_a	real_bottomleft_diff_a	20	466	18	mask.bmp	blankscreen.bmp	wmn2.bmp	blankscreen.bmp	circle.bmp
232	real_b	real_topright_diff_b	1	661	18	mask.bmp	blankscreen.bmp	wmn7.bmp	blankscreen.bmp	circle.bmp
232	real_b	real_bottomleft_diff_b	2	428	23	mask.bmp	blankscreen.bmp	wmn8.bmp	blankscreen.bmp	square.bmp
232	real_b	real_topleft_diff_b	3	757	23	mask.bmp	blankscreen.bmp	wfd7.bmp	blankscreen.bmp	square.bmp
232	real_b	real_bottomleft_same_b	4	360	18	mask.bmp	blankscreen.bmp	wmd10.bmp	blankscreen.bmp	square.bmp
232	real_b	real_topleft_diff_b	5	428	18	mask.bmp	blankscreen.bmp	wmn6.bmp	blankscreen.bmp	circle.bmp
232	real_b	real_bottomright_diff_b	6	478	23	mask.bmp	blankscreen.bmp	wmd7.bmp	blankscreen.bmp	square.bmp
232	real_b	real_topleft_diff_b	7	932	23	mask.bmp	blankscreen.bmp	wmd8.bmp	blankscreen.bmp	square.bmp
232	real_b	real_bottomleft_diff_b	8	688	18	mask.bmp	blankscreen.bmp	wmd6.bmp	blankscreen.bmp	circle.bmp
232	real_b	real_topleft_same_b	9	766	18	mask.bmp	blankscreen.bmp	wmn9.bmp	blankscreen.bmp	circle.bmp
232	real_b	real_topright_diff_b	10	1049	18	mask.bmp	blankscreen.bmp	wfd8.bmp	blankscreen.bmp	circle.bmp
232	real_b	real_bottomleft_diff_b	11	599	18	mask.bmp	blankscreen.bmp	wfn7.bmp	blankscreen.bmp	circle.bmp
232	real_b	real_topleft_same_b	12	1569	23	mask.bmp	blankscreen.bmp	wmd9.bmp	blankscreen.bmp	square.bmp
232	real_b	real_bottomleft_same_b	13	482	23	mask.bmp	blankscreen.bmp	wfd9.bmp	blankscreen.bmp	square.bmp
232	real_b	real_bottomright_same_b	14	529	23	mask.bmp	blankscreen.bmp	wfd10.bmp	blankscreen.bmp	square.bmp
232	real_b	real_topright_same_b	15	694	23	mask.bmp	blankscreen.bmp	wfn9.bmp	blankscreen.bmp	circle.bmp
232	real_b	real_topright_same_b	16	564	18	mask.bmp	blankscreen.bmp	wmn10.bmp	blankscreen.bmp	circle.bmp
232	real_b	real_bottomright_diff_b	17	543	18	mask.bmp	blankscreen.bmp	wfd6.bmp	blankscreen.bmp	circle.bmp
232	real_b	real_bottomright_diff_b	18	427	18	mask.bmp	blankscreen.bmp	wfn8.bmp	blankscreen.bmp	circle.bmp
232	real_b	real_topright_diff_b	19	468	18	mask.bmp	blankscreen.bmp	wfn6.bmp	blankscreen.bmp	circle.bmp
232	real_b	real_bottomright_same_b	20	524	23	mask.bmp	blankscreen.bmp	wfn10.bmp	blankscreen.bmp	square.bmp
232	real_c	real_bottomleft_same_c	1	613	18	mask.bmp	blankscreen.bmp	wmn1.bmp	blankscreen.bmp	circle.bmp
232	real_c	real_bottomleft_diff_c	2	567	18	mask.bmp	blankscreen.bmp	wfd4.bmp	blankscreen.bmp	circle.bmp
232	real_c	real_topleft_diff_c	3	418	18	mask.bmp	blankscreen.bmp	wmn5.bmp	blankscreen.bmp	circle.bmp
232	real_c	real_bottomleft_diff_c	4	516	23	mask.bmp	blankscreen.bmp	wmd5.bmp	blankscreen.bmp	square.bmp
232	real_c	real_topright_same_c	5	994	23	mask.bmp	blankscreen.bmp	wmd1.bmp	blankscreen.bmp	square.bmp
232	real_c	real_bottomleft_same_c	6	362	18	mask.bmp	blankscreen.bmp	wfd2.bmp	blankscreen.bmp	circle.bmp
232	real_c	real_topleft_same_c	7	679	18	mask.bmp	blankscreen.bmp	wfd1.bmp	blankscreen.bmp	circle.bmp
232	real_c	real_topright_diff_c	8	493	18	mask.bmp	blankscreen.bmp	wmn3.bmp	blankscreen.bmp	square.bmp
232	real_c	real_topleft_diff_c	9	475	18	mask.bmp	blankscreen.bmp	wfn4.bmp	blankscreen.bmp	circle.bmp
232	real_c	real_topright_same_c	10	578	18	mask.bmp	blankscreen.bmp	wfn2.bmp	blankscreen.bmp	circle.bmp
232	real_c	real_bottomleft_diff_c	11	365	23	mask.bmp	blankscreen.bmp	wfn3.bmp	blankscreen.bmp	square.bmp
232	real_c	real_bottomright_diff_c	12	337	18	mask.bmp	blankscreen.bmp	wmd3.bmp	blankscreen.bmp	circle.bmp
232	real_c	real_bottomright_same_c	13	366	18	mask.bmp	blankscreen.bmp	wmd2.bmp	blankscreen.bmp	circle.bmp
232	real_c	real_topright_diff_c	14	354	18	mask.bmp	blankscreen.bmp	wmd4.bmp	blankscreen.bmp	circle.bmp
232	real_c	real_topleft_diff_c	15	359	18	mask.bmp	blankscreen.bmp	wfd3.bmp	blankscreen.bmp	circle.bmp
232	real_c	real_bottomright_diff_c	16	378	23	mask.bmp	blankscreen.bmp	wfd5.bmp	blankscreen.bmp	square.bmp
232	real_c	real_topleft_same_c	17	493	23	mask.bmp	blankscreen.bmp	wfn1.bmp	blankscreen.bmp	square.bmp
232	real_c	real_topright_diff_c	18	436	23	mask.bmp	blankscreen.bmp	wfn5.bmp	blankscreen.bmp	square.bmp
232	real_c	real_bottomright_diff_c	19	429	18	mask.bmp	blankscreen.bmp	wmn4.bmp	blankscreen.bmp	circle.bmp
232	real_c	real_bottomright_same_c	20	398	23	mask.bmp	blankscreen.bmp	wmn2.bmp	blankscreen.bmp	square.bmp
232	real_d	real_topleft_diff_d	1	490	23	mask.bmp	blankscreen.bmp	wmd9.bmp	blankscreen.bmp	circle.bmp
232	real_d	real_bottomright_same_d	2	496	18	mask.bmp	blankscreen.bmp	wfd7.bmp	blankscreen.bmp	circle.bmp
232	real_d	real_topright_diff_d	3	431	23	mask.bmp	blankscreen.bmp	wmd10.bmp	blankscreen.bmp	square.bmp
232	real_d	real_bottomright_same_d	4	504	18	mask.bmp	blankscreen.bmp	wfn7.bmp	blankscreen.bmp	square.bmp
232	real_d	real_bottomleft_same_d	5	493	23	mask.bmp	blankscreen.bmp	wmn7.bmp	blankscreen.bmp	square.bmp
232	real_d	real_bottomleft_diff_d	6	396	23	mask.bmp	blankscreen.bmp	wmd8.bmp	blankscreen.bmp	square.bmp
232	real_d	real_topright_diff_d	7	646	18	mask.bmp	blankscreen.bmp	wfd9.bmp	blankscreen.bmp	circle.bmp
232	real_d	real_topleft_diff_d	8	974	23	mask.bmp	blankscreen.bmp	wmn8.bmp	blankscreen.bmp	square.bmp
232	real_d	real_bottomleft_diff_d	9	568	18	mask.bmp	blankscreen.bmp	wfd10.bmp	blankscreen.bmp	circle.bmp
232	real_d	real_topright_diff_d	10	707	18	mask.bmp	blankscreen.bmp	wfn8.bmp	blankscreen.bmp	circle.bmp
232	real_d	real_topleft_diff_d	11	672	23	mask.bmp	blankscreen.bmp	wfn10.bmp	blankscreen.bmp	square.bmp
232	real_d	real_bottomright_diff_d	12	399	23	mask.bmp	blankscreen.bmp	wfn9.bmp	blankscreen.bmp	square.bmp
232	real_d	real_topleft_same_d	13	441	23	mask.bmp	blankscreen.bmp	wmd6.bmp	blankscreen.bmp	square.bmp
232	real_d	real_bottomleft_same_d	14	370	18	mask.bmp	blankscreen.bmp	wfn6.bmp	blankscreen.bmp	circle.bmp
232	real_d	real_topright_same_d	15	365	18	mask.bmp	blankscreen.bmp	wmd7.bmp	blankscreen.bmp	circle.bmp
232	real_d	real_topright_same_d	16	385	18	mask.bmp	blankscreen.bmp	wfd6.bmp	blankscreen.bmp	circle.bmp
232	real_d	real_bottomleft_diff_d	17	405	23	mask.bmp	blankscreen.bmp	wmn9.bmp	blankscreen.bmp	square.bmp
232	real_d	real_bottomright_diff_d	18	487	23	mask.bmp	blankscreen.bmp	wmn10.bmp	blankscreen.bmp	square.bmp
232	real_d	real_topleft_same_d	19	326	23	mask.bmp	blankscreen.bmp	wmn6.bmp	blankscreen.bmp	circle.bmp
232	real_d	real_bottomright_diff_d	20	619	23	mask.bmp	blankscreen.bmp	wfd8.bmp	blankscreen.bmp	square.bmp
239	practice	practice_topright_same	1	997	18	mask.bmp	blankscreen.bmp	practice4.jpg	blankscreen.bmp	circle.bmp
239	practice	practice_bottomright_same	2	1406	18	mask.bmp	blankscreen.bmp	practice7.jpg	blankscreen.bmp	circle.bmp
239	practice	practice_bottomleft_diff	3	925	18	mask.bmp	blankscreen.bmp	practice11.jpg	blankscreen.bmp	circle.bmp
239	practice	practice_topleft_same	4	1000	18	mask.bmp	blankscreen.bmp	practice2.jpg	blankscreen.bmp	circle.bmp
239	practice	practice_topleft_same	5	793	23	mask.bmp	blankscreen.bmp	practice1.jpg	blankscreen.bmp	square.bmp
239	practice	practice_topright_same	6	883	23	mask.bmp	blankscreen.bmp	practice3.jpg	blankscreen.bmp	square.bmp
239	practice	practice_topright_diff	7	809	23	mask.bmp	blankscreen.bmp	practice10.jpg	blankscreen.bmp	square.bmp
239	practice	practice_topleft_diff	8	729	18	mask.bmp	blankscreen.bmp	practice9.jpg	blankscreen.bmp	circle.bmp
239	practice	practice_bottomleft_same	9	1126	18	mask.bmp	blankscreen.bmp	practice5.jpg	blankscreen.bmp	circle.bmp
239	practice	practice_bottomleft_same	10	817	18	mask.bmp	blankscreen.bmp	practice6.jpg	blankscreen.bmp	circle.bmp
239	practice	practice_bottomright_same	11	633	23	mask.bmp	blankscreen.bmp	practice8.jpg	blankscreen.bmp	square.bmp
239	practice	practice_bottomright_diff	12	882	23	mask.bmp	blankscreen.bmp	practice12.jpg	blankscreen.bmp	square.bmp
239	real_a	real_topleft_diff_a	1	1154	18	mask.bmp	blankscreen.bmp	wfd1.bmp	blankscreen.bmp	circle.bmp
239	real_a	real_topleft_same_a	2	948	18	mask.bmp	blankscreen.bmp	wfn4.bmp	blankscreen.bmp	circle.bmp
239	real_a	real_topright_diff_a	3	863	18	mask.bmp	blankscreen.bmp	wfd2.bmp	blankscreen.bmp	circle.bmp
239	real_a	real_bottomleft_same_a	4	1006	23	mask.bmp	blankscreen.bmp	wfn5.bmp	blankscreen.bmp	square.bmp
239	real_a	real_topright_same_a	5	814	18	mask.bmp	blankscreen.bmp	wfd5.bmp	blankscreen.bmp	circle.bmp
239	real_a	real_bottomleft_diff_a	6	974	18	mask.bmp	blankscreen.bmp	wfd3.bmp	blankscreen.bmp	circle.bmp
239	real_a	real_topright_diff_a	7	1048	18	mask.bmp	blankscreen.bmp	wmn1.bmp	blankscreen.bmp	circle.bmp
239	real_a	real_bottomright_diff_a	8	839	23	mask.bmp	blankscreen.bmp	wfn2.bmp	blankscreen.bmp	square.bmp
239	real_a	real_bottomright_diff_a	9	926	18	mask.bmp	blankscreen.bmp	wmd1.bmp	blankscreen.bmp	circle.bmp
239	real_a	real_bottomleft_same_a	10	929	23	mask.bmp	blankscreen.bmp	wmd4.bmp	blankscreen.bmp	square.bmp
239	real_a	real_topright_same_a	11	741	18	mask.bmp	blankscreen.bmp	wmn4.bmp	blankscreen.bmp	circle.bmp
239	real_a	real_bottomright_diff_a	12	977	18	mask.bmp	blankscreen.bmp	wmn3.bmp	blankscreen.bmp	circle.bmp
239	real_a	real_bottomright_same_a	13	866	23	mask.bmp	blankscreen.bmp	wmn5.bmp	blankscreen.bmp	square.bmp
239	real_a	real_topleft_diff_a	14	729	18	mask.bmp	blankscreen.bmp	wmd2.bmp	blankscreen.bmp	circle.bmp
239	real_a	real_bottomright_same_a	15	925	18	mask.bmp	blankscreen.bmp	wmd5.bmp	blankscreen.bmp	circle.bmp
239	real_a	real_bottomleft_diff_a	16	1026	18	mask.bmp	blankscreen.bmp	wfn1.bmp	blankscreen.bmp	circle.bmp
239	real_a	real_topright_diff_a	17	704	23	mask.bmp	blankscreen.bmp	wmd3.bmp	blankscreen.bmp	square.bmp
239	real_a	real_topleft_diff_a	18	710	18	mask.bmp	blankscreen.bmp	wfn3.bmp	blankscreen.bmp	circle.bmp
239	real_a	real_bottomleft_diff_a	19	1066	23	mask.bmp	blankscreen.bmp	wmn2.bmp	blankscreen.bmp	square.bmp
239	real_a	real_topleft_same_a	20	920	23	mask.bmp	blankscreen.bmp	wfd4.bmp	blankscreen.bmp	square.bmp
239	real_b	real_topright_same_b	1	644	18	mask.bmp	blankscreen.bmp	wfn9.bmp	blankscreen.bmp	circle.bmp
239	real_b	real_bottomleft_diff_b	2	692	18	mask.bmp	blankscreen.bmp	wmn8.bmp	blankscreen.bmp	circle.bmp
239	real_b	real_topright_diff_b	3	809	23	mask.bmp	blankscreen.bmp	wmn7.bmp	blankscreen.bmp	square.bmp
239	real_b	real_bottomright_same_b	4	730	18	mask.bmp	blankscreen.bmp	wfn10.bmp	blankscreen.bmp	circle.bmp
239	real_b	real_bottomleft_diff_b	5	646	23	mask.bmp	blankscreen.bmp	wfn7.bmp	blankscreen.bmp	square.bmp
239	real_b	real_bottomright_diff_b	6	598	23	mask.bmp	blankscreen.bmp	wmd7.bmp	blankscreen.bmp	square.bmp
239	real_b	real_topleft_same_b	7	616	23	mask.bmp	blankscreen.bmp	wmn9.bmp	blankscreen.bmp	square.bmp
239	real_b	real_topright_same_b	8	665	23	mask.bmp	blankscreen.bmp	wmn10.bmp	blankscreen.bmp	square.bmp
239	real_b	real_topleft_diff_b	9	505	18	mask.bmp	blankscreen.bmp	wfd7.bmp	blankscreen.bmp	circle.bmp
239	real_b	real_topleft_same_b	10	630	23	mask.bmp	blankscreen.bmp	wmd9.bmp	blankscreen.bmp	square.bmp
239	real_b	real_bottomleft_same_b	11	719	18	mask.bmp	blankscreen.bmp	wmd10.bmp	blankscreen.bmp	circle.bmp
239	real_b	real_bottomleft_same_b	12	836	18	mask.bmp	blankscreen.bmp	wfd9.bmp	blankscreen.bmp	circle.bmp
239	real_b	real_topright_diff_b	13	1036	23	mask.bmp	blankscreen.bmp	wfn6.bmp	blankscreen.bmp	square.bmp
239	real_b	real_topleft_diff_b	14	643	23	mask.bmp	blankscreen.bmp	wmn6.bmp	blankscreen.bmp	square.bmp
239	real_b	real_topright_diff_b	15	811	18	mask.bmp	blankscreen.bmp	wfd8.bmp	blankscreen.bmp	circle.bmp
239	real_b	real_bottomright_diff_b	16	916	23	mask.bmp	blankscreen.bmp	wfn8.bmp	blankscreen.bmp	square.bmp
239	real_b	real_bottomright_diff_b	17	816	18	mask.bmp	blankscreen.bmp	wfd6.bmp	blankscreen.bmp	circle.bmp
239	real_b	real_topleft_diff_b	18	761	18	mask.bmp	blankscreen.bmp	wmd8.bmp	blankscreen.bmp	circle.bmp
239	real_b	real_bottomright_same_b	19	804	23	mask.bmp	blankscreen.bmp	wfd10.bmp	blankscreen.bmp	square.bmp
239	real_b	real_bottomleft_diff_b	20	693	18	mask.bmp	blankscreen.bmp	wmd6.bmp	blankscreen.bmp	circle.bmp
239	real_c	real_topright_same_c	1	781	23	mask.bmp	blankscreen.bmp	wmd1.bmp	blankscreen.bmp	square.bmp
239	real_c	real_topright_diff_c	2	519	18	mask.bmp	blankscreen.bmp	wfn5.bmp	blankscreen.bmp	circle.bmp
239	real_c	real_bottomright_same_c	3	636	18	mask.bmp	blankscreen.bmp	wmd2.bmp	blankscreen.bmp	circle.bmp
239	real_c	real_bottomleft_same_c	4	397	18	mask.bmp	blankscreen.bmp	wmn1.bmp	blankscreen.bmp	circle.bmp
239	real_c	real_topright_diff_c	5	528	18	mask.bmp	blankscreen.bmp	wmn3.bmp	blankscreen.bmp	circle.bmp
239	real_c	real_topright_same_c	6	572	23	mask.bmp	blankscreen.bmp	wfn2.bmp	blankscreen.bmp	square.bmp
239	real_c	real_bottomleft_same_c	7	535	18	mask.bmp	blankscreen.bmp	wfd2.bmp	blankscreen.bmp	circle.bmp
239	real_c	real_bottomleft_diff_c	8	852	23	mask.bmp	blankscreen.bmp	wfn3.bmp	blankscreen.bmp	square.bmp
239	real_c	real_bottomright_same_c	9	676	18	mask.bmp	blankscreen.bmp	wmn2.bmp	blankscreen.bmp	circle.bmp
239	real_c	real_bottomright_diff_c	10	594	18	mask.bmp	blankscreen.bmp	wmd3.bmp	blankscreen.bmp	circle.bmp
239	real_c	real_topleft_diff_c	11	644	23	mask.bmp	blankscreen.bmp	wmn5.bmp	blankscreen.bmp	square.bmp
239	real_c	real_bottomleft_diff_c	12	452	18	mask.bmp	blankscreen.bmp	wfd4.bmp	blankscreen.bmp	circle.bmp
239	real_c	real_topleft_diff_c	13	596	23	mask.bmp	blankscreen.bmp	wfn4.bmp	blankscreen.bmp	square.bmp
239	real_c	real_topright_diff_c	14	550	18	mask.bmp	blankscreen.bmp	wmd4.bmp	blankscreen.bmp	circle.bmp
239	real_c	real_bottomright_diff_c	15	666	23	mask.bmp	blankscreen.bmp	wmn4.bmp	blankscreen.bmp	square.bmp
239	real_c	real_topleft_same_c	16	650	18	mask.bmp	blankscreen.bmp	wfd1.bmp	blankscreen.bmp	circle.bmp
239	real_c	real_topleft_diff_c	17	826	18	mask.bmp	blankscreen.bmp	wfd3.bmp	blankscreen.bmp	circle.bmp
239	real_c	real_bottomleft_diff_c	18	738	18	mask.bmp	blankscreen.bmp	wmd5.bmp	blankscreen.bmp	circle.bmp
239	real_c	real_topleft_same_c	19	765	23	mask.bmp	blankscreen.bmp	wfn1.bmp	blankscreen.bmp	square.bmp
239	real_c	real_bottomright_diff_c	20	1088	23	mask.bmp	blankscreen.bmp	wfd5.bmp	blankscreen.bmp	square.bmp
239	real_d	real_topleft_diff_d	1	711	18	mask.bmp	blankscreen.bmp	wfn10.bmp	blankscreen.bmp	circle.bmp
239	real_d	real_topleft_diff_d	2	588	18	mask.bmp	blankscreen.bmp	wmd9.bmp	blankscreen.bmp	circle.bmp
239	real_d	real_topleft_diff_d	3	807	23	mask.bmp	blankscreen.bmp	wmn8.bmp	blankscreen.bmp	square.bmp
239	real_d	real_bottomleft_diff_d	4	663	18	mask.bmp	blankscreen.bmp	wmd8.bmp	blankscreen.bmp	circle.bmp
239	real_d	real_bottomleft_diff_d	5	702	18	mask.bmp	blankscreen.bmp	wmn9.bmp	blankscreen.bmp	circle.bmp
239	real_d	real_bottomright_same_d	6	572	18	mask.bmp	blankscreen.bmp	wfn7.bmp	blankscreen.bmp	circle.bmp
239	real_d	real_topright_diff_d	7	574	18	mask.bmp	blankscreen.bmp	wfn8.bmp	blankscreen.bmp	circle.bmp
239	real_d	real_bottomright_diff_d	8	537	18	mask.bmp	blankscreen.bmp	wmn10.bmp	blankscreen.bmp	circle.bmp
239	real_d	real_bottomright_diff_d	9	725	23	mask.bmp	blankscreen.bmp	wfn9.bmp	blankscreen.bmp	square.bmp
239	real_d	real_topleft_same_d	10	433	18	mask.bmp	blankscreen.bmp	wmn6.bmp	blankscreen.bmp	circle.bmp
239	real_d	real_topright_diff_d	11	675	18	mask.bmp	blankscreen.bmp	wmd10.bmp	blankscreen.bmp	circle.bmp
239	real_d	real_topright_same_d	12	616	18	mask.bmp	blankscreen.bmp	wmd7.bmp	blankscreen.bmp	circle.bmp
239	real_d	real_bottomright_same_d	13	619	23	mask.bmp	blankscreen.bmp	wfd7.bmp	blankscreen.bmp	square.bmp
239	real_d	real_topleft_same_d	14	788	23	mask.bmp	blankscreen.bmp	wmd6.bmp	blankscreen.bmp	square.bmp
239	real_d	real_bottomleft_diff_d	15	605	18	mask.bmp	blankscreen.bmp	wfd10.bmp	blankscreen.bmp	circle.bmp
239	real_d	real_topright_same_d	16	775	23	mask.bmp	blankscreen.bmp	wfd6.bmp	blankscreen.bmp	square.bmp
239	real_d	real_bottomleft_same_d	17	729	23	mask.bmp	blankscreen.bmp	wfn6.bmp	blankscreen.bmp	square.bmp
239	real_d	real_bottomleft_same_d	18	869	23	mask.bmp	blankscreen.bmp	wmn7.bmp	blankscreen.bmp	square.bmp
239	real_d	real_bottomright_diff_d	19	539	18	mask.bmp	blankscreen.bmp	wfd8.bmp	blankscreen.bmp	circle.bmp
239	real_d	real_topright_diff_d	20	680	23	mask.bmp	blankscreen.bmp	wfd9.bmp	blankscreen.bmp	square.bmp
245	practice	practice_bottomright_same	1	1743	23	mask.bmp	blankscreen.bmp	practice7.jpg	blankscreen.bmp	square.bmp
245	practice	practice_bottomleft_same	2	824	18	mask.bmp	blankscreen.bmp	practice6.jpg	blankscreen.bmp	circle.bmp
245	practice	practice_topright_diff	3	1896	23	mask.bmp	blankscreen.bmp	practice10.jpg	blankscreen.bmp	square.bmp
245	practice	practice_bottomleft_same	4	450	18	mask.bmp	blankscreen.bmp	practice5.jpg	blankscreen.bmp	circle.bmp
245	practice	practice_bottomright_diff	5	930	18	mask.bmp	blankscreen.bmp	practice12.jpg	blankscreen.bmp	circle.bmp
245	practice	practice_bottomleft_diff	6	1158	23	mask.bmp	blankscreen.bmp	practice11.jpg	blankscreen.bmp	square.bmp
245	practice	practice_topright_same	7	928	23	mask.bmp	blankscreen.bmp	practice3.jpg	blankscreen.bmp	square.bmp
245	practice	practice_topleft_same	8	843	23	mask.bmp	blankscreen.bmp	practice2.jpg	blankscreen.bmp	square.bmp
245	practice	practice_topleft_same	9	795	18	mask.bmp	blankscreen.bmp	practice1.jpg	blankscreen.bmp	circle.bmp
245	practice	practice_topleft_diff	10	892	23	mask.bmp	blankscreen.bmp	practice9.jpg	blankscreen.bmp	square.bmp
245	practice	practice_topright_same	11	865	18	mask.bmp	blankscreen.bmp	practice4.jpg	blankscreen.bmp	circle.bmp
245	practice	practice_bottomright_same	12	688	18	mask.bmp	blankscreen.bmp	practice8.jpg	blankscreen.bmp	circle.bmp
245	real_a	real_topleft_same_a	1	722	23	mask.bmp	blankscreen.bmp	wfd4.bmp	blankscreen.bmp	square.bmp
245	real_a	real_bottomright_diff_a	2	694	18	mask.bmp	blankscreen.bmp	wmd1.bmp	blankscreen.bmp	circle.bmp
245	real_a	real_bottomright_same_a	3	636	23	mask.bmp	blankscreen.bmp	wmn5.bmp	blankscreen.bmp	square.bmp
245	real_a	real_bottomleft_diff_a	4	1012	23	mask.bmp	blankscreen.bmp	wmn2.bmp	blankscreen.bmp	square.bmp
245	real_a	real_topleft_diff_a	5	725	18	mask.bmp	blankscreen.bmp	wfd1.bmp	blankscreen.bmp	circle.bmp
245	real_a	real_topleft_diff_a	6	648	18	mask.bmp	blankscreen.bmp	wfn3.bmp	blankscreen.bmp	circle.bmp
245	real_a	real_topleft_same_a	7	544	23	mask.bmp	blankscreen.bmp	wfn4.bmp	blankscreen.bmp	square.bmp
245	real_a	real_bottomright_same_a	8	613	23	mask.bmp	blankscreen.bmp	wmd5.bmp	blankscreen.bmp	square.bmp
245	real_a	real_topright_same_a	9	534	18	mask.bmp	blankscreen.bmp	wmn4.bmp	blankscreen.bmp	circle.bmp
245	real_a	real_bottomleft_diff_a	10	1443	18	mask.bmp	blankscreen.bmp	wfn1.bmp	blankscreen.bmp	circle.bmp
245	real_a	real_topright_same_a	11	560	23	mask.bmp	blankscreen.bmp	wfd5.bmp	blankscreen.bmp	square.bmp
245	real_a	real_topleft_diff_a	12	684	18	mask.bmp	blankscreen.bmp	wmd2.bmp	blankscreen.bmp	circle.bmp
245	real_a	real_topright_diff_a	13	658	18	mask.bmp	blankscreen.bmp	wfd2.bmp	blankscreen.bmp	circle.bmp
245	real_a	real_bottomleft_same_a	14	849	23	mask.bmp	blankscreen.bmp	wmd4.bmp	blankscreen.bmp	square.bmp
245	real_a	real_bottomright_diff_a	15	689	18	mask.bmp	blankscreen.bmp	wfn2.bmp	blankscreen.bmp	circle.bmp
245	real_a	real_bottomleft_diff_a	16	622	18	mask.bmp	blankscreen.bmp	wfd3.bmp	blankscreen.bmp	circle.bmp
245	real_a	real_bottomleft_same_a	17	711	18	mask.bmp	blankscreen.bmp	wfn5.bmp	blankscreen.bmp	circle.bmp
245	real_a	real_bottomright_diff_a	18	628	23	mask.bmp	blankscreen.bmp	wmn3.bmp	blankscreen.bmp	square.bmp
245	real_a	real_topright_diff_a	19	685	23	mask.bmp	blankscreen.bmp	wmn1.bmp	blankscreen.bmp	square.bmp
245	real_a	real_topright_diff_a	20	779	18	mask.bmp	blankscreen.bmp	wmd3.bmp	blankscreen.bmp	circle.bmp
245	real_b	real_bottomleft_same_b	1	666	18	mask.bmp	blankscreen.bmp	wfd9.bmp	blankscreen.bmp	circle.bmp
245	real_b	real_bottomright_diff_b	2	689	23	mask.bmp	blankscreen.bmp	wfn8.bmp	blankscreen.bmp	square.bmp
245	real_b	real_topleft_same_b	3	559	18	mask.bmp	blankscreen.bmp	wmn9.bmp	blankscreen.bmp	circle.bmp
245	real_b	real_bottomleft_diff_b	4	819	18	mask.bmp	blankscreen.bmp	wfn7.bmp	blankscreen.bmp	circle.bmp
245	real_b	real_topright_diff_b	5	635	18	mask.bmp	blankscreen.bmp	wmn7.bmp	blankscreen.bmp	circle.bmp
245	real_b	real_topright_same_b	6	452	18	mask.bmp	blankscreen.bmp	wmn10.bmp	blankscreen.bmp	circle.bmp
245	real_b	real_bottomleft_same_b	7	412	18	mask.bmp	blankscreen.bmp	wmd10.bmp	blankscreen.bmp	circle.bmp
245	real_b	real_bottomleft_diff_b	8	718	18	mask.bmp	blankscreen.bmp	wmd6.bmp	blankscreen.bmp	circle.bmp
245	real_b	real_bottomleft_diff_b	9	643	18	mask.bmp	blankscreen.bmp	wmn8.bmp	blankscreen.bmp	circle.bmp
245	real_b	real_topleft_diff_b	10	1027	23	mask.bmp	blankscreen.bmp	wmd8.bmp	blankscreen.bmp	square.bmp
245	real_b	real_bottomright_same_b	11	571	18	mask.bmp	blankscreen.bmp	wfn10.bmp	blankscreen.bmp	circle.bmp
245	real_b	real_topleft_same_b	12	621	18	mask.bmp	blankscreen.bmp	wmd9.bmp	blankscreen.bmp	circle.bmp
245	real_b	real_topleft_diff_b	13	510	18	mask.bmp	blankscreen.bmp	wfd7.bmp	blankscreen.bmp	circle.bmp
245	real_b	real_topright_diff_b	14	491	18	mask.bmp	blankscreen.bmp	wfn6.bmp	blankscreen.bmp	circle.bmp
245	real_b	real_bottomright_diff_b	15	762	23	mask.bmp	blankscreen.bmp	wmd7.bmp	blankscreen.bmp	square.bmp
245	real_b	real_bottomright_same_b	16	517	23	mask.bmp	blankscreen.bmp	wfd10.bmp	blankscreen.bmp	square.bmp
245	real_b	real_bottomright_diff_b	17	522	18	mask.bmp	blankscreen.bmp	wfd6.bmp	blankscreen.bmp	circle.bmp
245	real_b	real_topright_same_b	18	607	23	mask.bmp	blankscreen.bmp	wfn9.bmp	blankscreen.bmp	square.bmp
245	real_b	real_topright_diff_b	19	648	18	mask.bmp	blankscreen.bmp	wfd8.bmp	blankscreen.bmp	circle.bmp
245	real_b	real_topleft_diff_b	20	673	23	mask.bmp	blankscreen.bmp	wmn6.bmp	blankscreen.bmp	square.bmp
245	real_c	real_bottomright_diff_c	1	694	23	mask.bmp	blankscreen.bmp	wfd5.bmp	blankscreen.bmp	square.bmp
245	real_c	real_topright_diff_c	2	515	18	mask.bmp	blankscreen.bmp	wfn5.bmp	blankscreen.bmp	circle.bmp
245	real_c	real_bottomleft_diff_c	3	609	18	mask.bmp	blankscreen.bmp	wfn3.bmp	blankscreen.bmp	circle.bmp
245	real_c	real_topleft_diff_c	4	610	23	mask.bmp	blankscreen.bmp	wfd3.bmp	blankscreen.bmp	square.bmp
245	real_c	real_topleft_diff_c	5	580	18	mask.bmp	blankscreen.bmp	wfn4.bmp	blankscreen.bmp	circle.bmp
245	real_c	real_topright_same_c	6	535	23	mask.bmp	blankscreen.bmp	wmd1.bmp	blankscreen.bmp	square.bmp
245	real_c	real_topleft_same_c	7	483	23	mask.bmp	blankscreen.bmp	wfn1.bmp	blankscreen.bmp	square.bmp
245	real_c	real_bottomright_diff_c	8	642	23	mask.bmp	blankscreen.bmp	wmd3.bmp	blankscreen.bmp	square.bmp
245	real_c	real_bottomleft_same_c	9	514	23	mask.bmp	blankscreen.bmp	wmn1.bmp	blankscreen.bmp	square.bmp
245	real_c	real_topright_diff_c	10	576	18	mask.bmp	blankscreen.bmp	wmd4.bmp	blankscreen.bmp	circle.bmp
245	real_c	real_bottomleft_same_c	11	571	23	mask.bmp	blankscreen.bmp	wfd2.bmp	blankscreen.bmp	square.bmp
245	real_c	real_bottomright_diff_c	12	637	23	mask.bmp	blankscreen.bmp	wmn4.bmp	blankscreen.bmp	square.bmp
245	real_c	real_bottomright_same_c	13	565	18	mask.bmp	blankscreen.bmp	wmd2.bmp	blankscreen.bmp	square.bmp
245	real_c	real_topleft_same_c	14	481	23	mask.bmp	blankscreen.bmp	wfd1.bmp	blankscreen.bmp	square.bmp
245	real_c	real_topleft_diff_c	15	520	23	mask.bmp	blankscreen.bmp	wmn5.bmp	blankscreen.bmp	square.bmp
245	real_c	real_bottomleft_diff_c	16	525	18	mask.bmp	blankscreen.bmp	wfd4.bmp	blankscreen.bmp	circle.bmp
245	real_c	real_bottomleft_diff_c	17	601	23	mask.bmp	blankscreen.bmp	wmd5.bmp	blankscreen.bmp	square.bmp
245	real_c	real_bottomright_same_c	18	572	23	mask.bmp	blankscreen.bmp	wmn2.bmp	blankscreen.bmp	square.bmp
245	real_c	real_topright_same_c	19	454	23	mask.bmp	blankscreen.bmp	wfn2.bmp	blankscreen.bmp	square.bmp
245	real_c	real_topright_diff_c	20	575	23	mask.bmp	blankscreen.bmp	wmn3.bmp	blankscreen.bmp	square.bmp
245	real_d	real_topleft_diff_d	1	932	18	mask.bmp	blankscreen.bmp	wfn10.bmp	blankscreen.bmp	circle.bmp
245	real_d	real_bottomleft_diff_d	2	463	23	mask.bmp	blankscreen.bmp	wmd8.bmp	blankscreen.bmp	square.bmp
245	real_d	real_topleft_diff_d	3	583	23	mask.bmp	blankscreen.bmp	wmd9.bmp	blankscreen.bmp	square.bmp
245	real_d	real_topleft_diff_d	4	634	18	mask.bmp	blankscreen.bmp	wmn8.bmp	blankscreen.bmp	circle.bmp
245	real_d	real_bottomright_diff_d	5	1034	18	mask.bmp	blankscreen.bmp	wmn10.bmp	blankscreen.bmp	circle.bmp
245	real_d	real_topleft_same_d	6	417	18	mask.bmp	blankscreen.bmp	wmd6.bmp	blankscreen.bmp	circle.bmp
245	real_d	real_topright_diff_d	7	524	23	mask.bmp	blankscreen.bmp	wmd10.bmp	blankscreen.bmp	square.bmp
245	real_d	real_bottomleft_diff_d	8	624	18	mask.bmp	blankscreen.bmp	wmn9.bmp	blankscreen.bmp	circle.bmp
245	real_d	real_bottomright_diff_d	9	737	23	mask.bmp	blankscreen.bmp	wfd8.bmp	blankscreen.bmp	square.bmp
245	real_d	real_bottomleft_same_d	10	765	18	mask.bmp	blankscreen.bmp	wfn6.bmp	blankscreen.bmp	circle.bmp
245	real_d	real_bottomright_same_d	11	551	23	mask.bmp	blankscreen.bmp	wfn7.bmp	blankscreen.bmp	square.bmp
245	real_d	real_bottomright_same_d	12	387	23	mask.bmp	blankscreen.bmp	wfd7.bmp	blankscreen.bmp	square.bmp
245	real_d	real_topright_same_d	13	438	18	mask.bmp	blankscreen.bmp	wmd7.bmp	blankscreen.bmp	circle.bmp
245	real_d	real_bottomleft_same_d	14	607	23	mask.bmp	blankscreen.bmp	wmn7.bmp	blankscreen.bmp	square.bmp
245	real_d	real_bottomleft_diff_d	15	688	18	mask.bmp	blankscreen.bmp	wfd10.bmp	blankscreen.bmp	circle.bmp
245	real_d	real_bottomright_diff_d	16	574	23	mask.bmp	blankscreen.bmp	wfn9.bmp	blankscreen.bmp	square.bmp
245	real_d	real_topright_same_d	17	576	23	mask.bmp	blankscreen.bmp	wfd6.bmp	blankscreen.bmp	square.bmp
245	real_d	real_topright_diff_d	18	555	18	mask.bmp	blankscreen.bmp	wfd9.bmp	blankscreen.bmp	circle.bmp
245	real_d	real_topright_diff_d	19	575	23	mask.bmp	blankscreen.bmp	wfn8.bmp	blankscreen.bmp	square.bmp
245	real_d	real_topleft_same_d	20	601	23	mask.bmp	blankscreen.bmp	wmn6.bmp	blankscreen.bmp	square.bmp
249	practice	practice_topleft_diff	1	1427	18	mask.bmp	blankscreen.bmp	practice9.jpg	blankscreen.bmp	square.bmp
249	practice	practice_topright_same	2	1785	18	mask.bmp	blankscreen.bmp	practice4.jpg	blankscreen.bmp	circle.bmp
249	practice	practice_bottomright_diff	3	680	23	mask.bmp	blankscreen.bmp	practice12.jpg	blankscreen.bmp	square.bmp
249	practice	practice_bottomleft_same	4	719	18	mask.bmp	blankscreen.bmp	practice5.jpg	blankscreen.bmp	square.bmp
249	practice	practice_topleft_same	5	1252	23	mask.bmp	blankscreen.bmp	practice2.jpg	blankscreen.bmp	square.bmp
249	practice	practice_bottomleft_diff	6	610	23	mask.bmp	blankscreen.bmp	practice11.jpg	blankscreen.bmp	square.bmp
249	practice	practice_topleft_same	7	763	18	mask.bmp	blankscreen.bmp	practice1.jpg	blankscreen.bmp	circle.bmp
249	practice	practice_topright_same	8	574	18	mask.bmp	blankscreen.bmp	practice3.jpg	blankscreen.bmp	circle.bmp
249	practice	practice_bottomright_same	9	625	23	mask.bmp	blankscreen.bmp	practice8.jpg	blankscreen.bmp	square.bmp
249	practice	practice_bottomleft_same	10	601	23	mask.bmp	blankscreen.bmp	practice6.jpg	blankscreen.bmp	square.bmp
249	practice	practice_bottomright_same	11	628	23	mask.bmp	blankscreen.bmp	practice7.jpg	blankscreen.bmp	square.bmp
249	practice	practice_topright_diff	12	1052	18	mask.bmp	blankscreen.bmp	practice10.jpg	blankscreen.bmp	circle.bmp
249	real_a	real_topright_diff_a	1	1076	18	mask.bmp	blankscreen.bmp	wfd2.bmp	blankscreen.bmp	circle.bmp
249	real_a	real_topleft_diff_a	2	1129	23	mask.bmp	blankscreen.bmp	wmd2.bmp	blankscreen.bmp	square.bmp
249	real_a	real_topright_same_a	3	1020	23	mask.bmp	blankscreen.bmp	wfd5.bmp	blankscreen.bmp	square.bmp
249	real_a	real_topleft_diff_a	4	765	18	mask.bmp	blankscreen.bmp	wfd1.bmp	blankscreen.bmp	square.bmp
249	real_a	real_topleft_same_a	5	1055	23	mask.bmp	blankscreen.bmp	wfd4.bmp	blankscreen.bmp	square.bmp
249	real_a	real_bottomright_same_a	6	925	18	mask.bmp	blankscreen.bmp	wmn5.bmp	blankscreen.bmp	circle.bmp
249	real_a	real_topright_diff_a	7	993	18	mask.bmp	blankscreen.bmp	wmn1.bmp	blankscreen.bmp	circle.bmp
249	real_a	real_bottomleft_diff_a	8	762	23	mask.bmp	blankscreen.bmp	wfn1.bmp	blankscreen.bmp	square.bmp
249	real_a	real_topright_diff_a	9	1149	18	mask.bmp	blankscreen.bmp	wmd3.bmp	blankscreen.bmp	circle.bmp
249	real_a	real_bottomleft_diff_a	10	1023	18	mask.bmp	blankscreen.bmp	wmn2.bmp	blankscreen.bmp	circle.bmp
249	real_a	real_bottomright_diff_a	11	943	23	mask.bmp	blankscreen.bmp	wmn3.bmp	blankscreen.bmp	circle.bmp
249	real_a	real_bottomright_diff_a	12	754	23	mask.bmp	blankscreen.bmp	wfn2.bmp	blankscreen.bmp	square.bmp
249	real_a	real_bottomleft_same_a	13	828	18	mask.bmp	blankscreen.bmp	wmd4.bmp	blankscreen.bmp	circle.bmp
249	real_a	real_topleft_same_a	14	636	18	mask.bmp	blankscreen.bmp	wfn4.bmp	blankscreen.bmp	circle.bmp
249	real_a	real_topright_same_a	15	501	23	mask.bmp	blankscreen.bmp	wmn4.bmp	blankscreen.bmp	square.bmp
249	real_a	real_bottomright_diff_a	16	683	18	mask.bmp	blankscreen.bmp	wmd1.bmp	blankscreen.bmp	circle.bmp
249	real_a	real_bottomleft_same_a	17	578	18	mask.bmp	blankscreen.bmp	wfn5.bmp	blankscreen.bmp	square.bmp
249	real_a	real_bottomleft_diff_a	18	1557	23	mask.bmp	blankscreen.bmp	wfd3.bmp	blankscreen.bmp	square.bmp
249	real_a	real_bottomright_same_a	19	573	18	mask.bmp	blankscreen.bmp	wmd5.bmp	blankscreen.bmp	circle.bmp
249	real_a	real_topleft_diff_a	20	424	18	mask.bmp	blankscreen.bmp	wfn3.bmp	blankscreen.bmp	circle.bmp
249	real_b	real_bottomleft_same_b	1	579	18	mask.bmp	blankscreen.bmp	wmd10.bmp	blankscreen.bmp	circle.bmp
249	real_b	real_topright_diff_b	2	654	18	mask.bmp	blankscreen.bmp	wfd8.bmp	blankscreen.bmp	square.bmp
249	real_b	real_bottomleft_same_b	3	573	18	mask.bmp	blankscreen.bmp	wfd9.bmp	blankscreen.bmp	circle.bmp
249	real_b	real_topright_diff_b	4	696	23	mask.bmp	blankscreen.bmp	wmn7.bmp	blankscreen.bmp	square.bmp
249	real_b	real_topleft_same_b	5	654	18	mask.bmp	blankscreen.bmp	wmn9.bmp	blankscreen.bmp	circle.bmp
249	real_b	real_topleft_diff_b	6	1029	23	mask.bmp	blankscreen.bmp	wmn6.bmp	blankscreen.bmp	square.bmp
249	real_b	real_bottomleft_diff_b	7	740	18	mask.bmp	blankscreen.bmp	wmn8.bmp	blankscreen.bmp	square.bmp
249	real_b	real_topright_diff_b	8	664	23	mask.bmp	blankscreen.bmp	wfn6.bmp	blankscreen.bmp	square.bmp
249	real_b	real_topright_same_b	9	663	23	mask.bmp	blankscreen.bmp	wmn10.bmp	blankscreen.bmp	circle.bmp
249	real_b	real_bottomright_same_b	10	518	18	mask.bmp	blankscreen.bmp	wfd10.bmp	blankscreen.bmp	circle.bmp
249	real_b	real_topright_same_b	11	580	23	mask.bmp	blankscreen.bmp	wfn9.bmp	blankscreen.bmp	square.bmp
249	real_b	real_topleft_diff_b	12	614	18	mask.bmp	blankscreen.bmp	wfd7.bmp	blankscreen.bmp	circle.bmp
249	real_b	real_bottomleft_diff_b	13	616	18	mask.bmp	blankscreen.bmp	wfn7.bmp	blankscreen.bmp	circle.bmp
249	real_b	real_bottomright_diff_b	14	1153	23	mask.bmp	blankscreen.bmp	wfn8.bmp	blankscreen.bmp	square.bmp
249	real_b	real_bottomright_diff_b	15	643	18	mask.bmp	blankscreen.bmp	wfd6.bmp	blankscreen.bmp	circle.bmp
249	real_b	real_bottomright_same_b	16	971	23	mask.bmp	blankscreen.bmp	wfn10.bmp	blankscreen.bmp	square.bmp
249	real_b	real_bottomleft_diff_b	17	605	23	mask.bmp	blankscreen.bmp	wmd6.bmp	blankscreen.bmp	square.bmp
249	real_b	real_topleft_same_b	18	782	18	mask.bmp	blankscreen.bmp	wmd9.bmp	blankscreen.bmp	circle.bmp
249	real_b	real_bottomright_diff_b	19	920	23	mask.bmp	blankscreen.bmp	wmd7.bmp	blankscreen.bmp	square.bmp
249	real_b	real_topleft_diff_b	20	909	18	mask.bmp	blankscreen.bmp	wmd8.bmp	blankscreen.bmp	circle.bmp
249	real_c	real_bottomright_same_c	1	1057	23	mask.bmp	blankscreen.bmp	wmn2.bmp	blankscreen.bmp	square.bmp
249	real_c	real_bottomleft_diff_c	2	671	18	mask.bmp	blankscreen.bmp	wmd5.bmp	blankscreen.bmp	circle.bmp
249	real_c	real_bottomright_diff_c	3	589	23	mask.bmp	blankscreen.bmp	wmn4.bmp	blankscreen.bmp	square.bmp
249	real_c	real_bottomleft_diff_c	4	639	18	mask.bmp	blankscreen.bmp	wfn3.bmp	blankscreen.bmp	circle.bmp
249	real_c	real_topright_same_c	5	591	18	mask.bmp	blankscreen.bmp	wmd1.bmp	blankscreen.bmp	square.bmp
249	real_c	real_topright_same_c	6	513	18	mask.bmp	blankscreen.bmp	wfn2.bmp	blankscreen.bmp	circle.bmp
249	real_c	real_topleft_same_c	7	447	18	mask.bmp	blankscreen.bmp	wfn1.bmp	blankscreen.bmp	circle.bmp
249	real_c	real_topright_diff_c	8	575	23	mask.bmp	blankscreen.bmp	wmn3.bmp	blankscreen.bmp	square.bmp
249	real_c	real_topleft_diff_c	9	882	23	mask.bmp	blankscreen.bmp	wfd3.bmp	blankscreen.bmp	square.bmp
249	real_c	real_bottomleft_same_c	10	784	18	mask.bmp	blankscreen.bmp	wfd2.bmp	blankscreen.bmp	circle.bmp
249	real_c	real_bottomright_diff_c	11	706	23	mask.bmp	blankscreen.bmp	wfd5.bmp	blankscreen.bmp	square.bmp
249	real_c	real_topleft_same_c	12	431	18	mask.bmp	blankscreen.bmp	wfd1.bmp	blankscreen.bmp	circle.bmp
249	real_c	real_bottomleft_same_c	13	593	23	mask.bmp	blankscreen.bmp	wmn1.bmp	blankscreen.bmp	square.bmp
249	real_c	real_topleft_diff_c	14	618	23	mask.bmp	blankscreen.bmp	wmn5.bmp	blankscreen.bmp	square.bmp
249	real_c	real_topleft_diff_c	15	540	18	mask.bmp	blankscreen.bmp	wfn4.bmp	blankscreen.bmp	circle.bmp
249	real_c	real_topright_diff_c	16	632	23	mask.bmp	blankscreen.bmp	wfn5.bmp	blankscreen.bmp	square.bmp
249	real_c	real_topright_diff_c	17	672	23	mask.bmp	blankscreen.bmp	wmd4.bmp	blankscreen.bmp	circle.bmp
249	real_c	real_bottomright_diff_c	18	590	18	mask.bmp	blankscreen.bmp	wmd3.bmp	blankscreen.bmp	circle.bmp
249	real_c	real_bottomleft_diff_c	19	641	23	mask.bmp	blankscreen.bmp	wfd4.bmp	blankscreen.bmp	square.bmp
249	real_c	real_bottomright_same_c	20	1353	23	mask.bmp	blankscreen.bmp	wmd2.bmp	blankscreen.bmp	square.bmp
249	real_d	real_bottomleft_same_d	1	858	23	mask.bmp	blankscreen.bmp	wmn7.bmp	blankscreen.bmp	square.bmp
249	real_d	real_topright_diff_d	2	401	18	mask.bmp	blankscreen.bmp	wfd9.bmp	blankscreen.bmp	circle.bmp
249	real_d	real_bottomleft_diff_d	3	412	18	mask.bmp	blankscreen.bmp	wmd8.bmp	blankscreen.bmp	circle.bmp
249	real_d	real_bottomright_same_d	4	510	18	mask.bmp	blankscreen.bmp	wfn7.bmp	blankscreen.bmp	circle.bmp
249	real_d	real_bottomright_diff_d	5	603	18	mask.bmp	blankscreen.bmp	wmn10.bmp	blankscreen.bmp	circle.bmp
249	real_d	real_topleft_diff_d	6	484	18	mask.bmp	blankscreen.bmp	wmn8.bmp	blankscreen.bmp	circle.bmp
249	real_d	real_bottomleft_diff_d	7	603	23	mask.bmp	blankscreen.bmp	wfd10.bmp	blankscreen.bmp	square.bmp
249	real_d	real_bottomleft_diff_d	8	605	18	mask.bmp	blankscreen.bmp	wmn9.bmp	blankscreen.bmp	circle.bmp
249	real_d	real_bottomright_same_d	9	751	18	mask.bmp	blankscreen.bmp	wfd7.bmp	blankscreen.bmp	circle.bmp
249	real_d	real_topleft_diff_d	10	546	18	mask.bmp	blankscreen.bmp	wmd9.bmp	blankscreen.bmp	circle.bmp
249	real_d	real_topright_diff_d	11	782	23	mask.bmp	blankscreen.bmp	wmd10.bmp	blankscreen.bmp	square.bmp
249	real_d	real_topleft_diff_d	12	448	18	mask.bmp	blankscreen.bmp	wfn10.bmp	blankscreen.bmp	circle.bmp
249	real_d	real_topright_same_d	13	552	18	mask.bmp	blankscreen.bmp	wfd6.bmp	blankscreen.bmp	circle.bmp
249	real_d	real_topleft_same_d	14	437	18	mask.bmp	blankscreen.bmp	wmn6.bmp	blankscreen.bmp	circle.bmp
249	real_d	real_bottomright_diff_d	15	453	23	mask.bmp	blankscreen.bmp	wfd8.bmp	blankscreen.bmp	square.bmp
249	real_d	real_topright_diff_d	16	693	18	mask.bmp	blankscreen.bmp	wfn8.bmp	blankscreen.bmp	circle.bmp
249	real_d	real_bottomright_diff_d	17	603	18	mask.bmp	blankscreen.bmp	wfn9.bmp	blankscreen.bmp	circle.bmp
249	real_d	real_topright_same_d	18	460	18	mask.bmp	blankscreen.bmp	wmd7.bmp	blankscreen.bmp	circle.bmp
249	real_d	real_bottomleft_same_d	19	388	18	mask.bmp	blankscreen.bmp	wfn6.bmp	blankscreen.bmp	circle.bmp
249	real_d	real_topleft_same_d	20	287	18	mask.bmp	blankscreen.bmp	wmd6.bmp	blankscreen.bmp	circle.bmp
259	practice	practice_topleft_same	1	4479	23	mask.bmp	blankscreen.bmp	practice2.jpg	blankscreen.bmp	square.bmp
259	practice	practice_bottomright_diff	2	2731	23	mask.bmp	blankscreen.bmp	practice12.jpg	blankscreen.bmp	square.bmp
259	practice	practice_topright_same	3	2537	23	mask.bmp	blankscreen.bmp	practice3.jpg	blankscreen.bmp	square.bmp
259	practice	practice_bottomright_same	4	2072	18	mask.bmp	blankscreen.bmp	practice8.jpg	blankscreen.bmp	circle.bmp
259	practice	practice_topright_same	5	907	23	mask.bmp	blankscreen.bmp	practice4.jpg	blankscreen.bmp	square.bmp
259	practice	practice_bottomleft_same	6	856	23	mask.bmp	blankscreen.bmp	practice5.jpg	blankscreen.bmp	square.bmp
259	practice	practice_bottomleft_same	7	902	23	mask.bmp	blankscreen.bmp	practice6.jpg	blankscreen.bmp	square.bmp
259	practice	practice_topleft_same	8	1947	18	mask.bmp	blankscreen.bmp	practice1.jpg	blankscreen.bmp	circle.bmp
259	practice	practice_bottomleft_diff	9	1227	18	mask.bmp	blankscreen.bmp	practice11.jpg	blankscreen.bmp	circle.bmp
259	practice	practice_topright_diff	10	1210	23	mask.bmp	blankscreen.bmp	practice10.jpg	blankscreen.bmp	square.bmp
259	practice	practice_bottomright_same	11	1754	18	mask.bmp	blankscreen.bmp	practice7.jpg	blankscreen.bmp	circle.bmp
259	practice	practice_topleft_diff	12	691	23	mask.bmp	blankscreen.bmp	practice9.jpg	blankscreen.bmp	square.bmp
259	real_a	real_topright_same_a	1	996	18	mask.bmp	blankscreen.bmp	wmn4.bmp	blankscreen.bmp	circle.bmp
259	real_a	real_bottomleft_same_a	2	693	23	mask.bmp	blankscreen.bmp	wfn5.bmp	blankscreen.bmp	square.bmp
259	real_a	real_topleft_same_a	3	898	23	mask.bmp	blankscreen.bmp	wfn4.bmp	blankscreen.bmp	square.bmp
259	real_a	real_bottomleft_same_a	4	727	18	mask.bmp	blankscreen.bmp	wmd4.bmp	blankscreen.bmp	circle.bmp
259	real_a	real_bottomright_same_a	5	860	23	mask.bmp	blankscreen.bmp	wmd5.bmp	blankscreen.bmp	square.bmp
259	real_a	real_topright_diff_a	6	850	18	mask.bmp	blankscreen.bmp	wmn1.bmp	blankscreen.bmp	circle.bmp
259	real_a	real_bottomright_diff_a	7	914	18	mask.bmp	blankscreen.bmp	wmd1.bmp	blankscreen.bmp	circle.bmp
259	real_a	real_bottomright_diff_a	8	1055	18	mask.bmp	blankscreen.bmp	wfn2.bmp	blankscreen.bmp	circle.bmp
259	real_a	real_topright_diff_a	9	788	18	mask.bmp	blankscreen.bmp	wfd2.bmp	blankscreen.bmp	circle.bmp
259	real_a	real_bottomleft_diff_a	10	558	23	mask.bmp	blankscreen.bmp	wmn2.bmp	blankscreen.bmp	square.bmp
