subject	blockcode	trialcode	trialnum	latency	response	stimulusitem1	stimulusitem2	stimulusitem3	stimulusitem4	stimulusitem5
279	practice	practice_bottomleft_diff	1	1735	23	mask.bmp	blankscreen.bmp	practice11.jpg	blankscreen.bmp	square.bmp
279	practice	practice_bottomright_same	2	816	23	mask.bmp	blankscreen.bmp	practice7.jpg	blankscreen.bmp	square.bmp
279	practice	practice_bottomright_same	3	841	23	mask.bmp	blankscreen.bmp	practice8.jpg	blankscreen.bmp	square.bmp
279	practice	practice_topleft_diff	4	720	18	mask.bmp	blankscreen.bmp	practice9.jpg	blankscreen.bmp	circle.bmp
279	practice	practice_topright_same	5	653	23	mask.bmp	blankscreen.bmp	practice3.jpg	blankscreen.bmp	square.bmp
279	practice	practice_bottomleft_same	6	653	18	mask.bmp	blankscreen.bmp	practice5.jpg	blankscreen.bmp	circle.bmp
279	practice	practice_bottomleft_same	7	700	23	mask.bmp	blankscreen.bmp	practice6.jpg	blankscreen.bmp	square.bmp
279	practice	practice_topright_diff	8	1314	18	mask.bmp	blankscreen.bmp	practice10.jpg	blankscreen.bmp	circle.bmp
279	practice	practice_topleft_same	9	757	18	mask.bmp	blankscreen.bmp	practice2.jpg	blankscreen.bmp	circle.bmp
279	practice	practice_topright_same	10	384	23	mask.bmp	blankscreen.bmp	practice4.jpg	blankscreen.bmp	square.bmp
279	practice	practice_topleft_same	11	547	18	mask.bmp	blankscreen.bmp	practice1.jpg	blankscreen.bmp	circle.bmp
279	practice	practice_bottomright_diff	12	623	23	mask.bmp	blankscreen.bmp	practice12.jpg	blankscreen.bmp	square.bmp
279	real_a	real_bottomright_diff_a	1	1269	18	mask.bmp	blankscreen.bmp	wmn3.bmp	blankscreen.bmp	circle.bmp
279	real_a	real_bottomleft_same_a	2	858	23	mask.bmp	blankscreen.bmp	wfn5.bmp	blankscreen.bmp	square.bmp
279	real_a	real_bottomright_diff_a	3	720	18	mask.bmp	blankscreen.bmp	wfn2.bmp	blankscreen.bmp	circle.bmp
279	real_a	real_bottomright_diff_a	4	597	23	mask.bmp	blankscreen.bmp	wmd1.bmp	blankscreen.bmp	square.bmp
279	real_a	real_bottomleft_diff_a	5	639	18	mask.bmp	blankscreen.bmp	wfn1.bmp	blankscreen.bmp	circle.bmp
279	real_a	real_topleft_same_a	6	751	23	mask.bmp	blankscreen.bmp	wfd4.bmp	blankscreen.bmp	square.bmp
279	real_a	real_topright_diff_a	7	659	18	mask.bmp	blankscreen.bmp	wfd2.bmp	blankscreen.bmp	circle.bmp
279	real_a	real_bottomleft_diff_a	8	731	18	mask.bmp	blankscreen.bmp	wmn2.bmp	blankscreen.bmp	circle.bmp
279	real_a	real_topright_same_a	9	663	23	mask.bmp	blankscreen.bmp	wfd5.bmp	blankscreen.bmp	square.bmp
279	real_a	real_bottomright_same_a	10	677	23	mask.bmp	blankscreen.bmp	wmd5.bmp	blankscreen.bmp	square.bmp
279	real_a	real_topleft_diff_a	11	635	18	mask.bmp	blankscreen.bmp	wmd2.bmp	blankscreen.bmp	circle.bmp
279	real_a	real_topleft_diff_a	12	684	23	mask.bmp	blankscreen.bmp	wfd1.bmp	blankscreen.bmp	square.bmp
279	real_a	real_topright_diff_a	13	746	23	mask.bmp	blankscreen.bmp	wmd3.bmp	blankscreen.bmp	square.bmp
279	real_a	real_topright_diff_a	14	622	23	mask.bmp	blankscreen.bmp	wmn1.bmp	blankscreen.bmp	square.bmp
279	real_a	real_topleft_diff_a	15	575	18	mask.bmp	blankscreen.bmp	wfn3.bmp	blankscreen.bmp	circle.bmp
279	real_a	real_topleft_same_a	16	697	18	mask.bmp	blankscreen.bmp	wfn4.bmp	blankscreen.bmp	circle.bmp
279	real_a	real_topright_same_a	17	799	23	mask.bmp	blankscreen.bmp	wmn4.bmp	blankscreen.bmp	square.bmp
279	real_a	real_bottomright_same_a	18	848	18	mask.bmp	blankscreen.bmp	wmn5.bmp	blankscreen.bmp	circle.bmp
279	real_a	real_bottomleft_diff_a	19	719	23	mask.bmp	blankscreen.bmp	wfd3.bmp	blankscreen.bmp	square.bmp
279	real_a	real_bottomleft_same_a	20	756	23	mask.bmp	blankscreen.bmp	wmd4.bmp	blankscreen.bmp	square.bmp
279	real_b	real_topright_same_b	1	685	23	mask.bmp	blankscreen.bmp	wmn10.bmp	blankscreen.bmp	square.bmp
279	real_b	real_bottomleft_diff_b	2	699	18	mask.bmp	blankscreen.bmp	wmd6.bmp	blankscreen.bmp	circle.bmp
279	real_b	real_topleft_same_b	3	729	23	mask.bmp	blankscreen.bmp	wmd9.bmp	blankscreen.bmp	square.bmp
279	real_b	real_bottomright_diff_b	4	701	23	mask.bmp	blankscreen.bmp	wfd6.bmp	blankscreen.bmp	square.bmp
279	real_b	real_bottomright_same_b	5	643	18	mask.bmp	blankscreen.bmp	wfn10.bmp	blankscreen.bmp	circle.bmp
279	real_b	real_bottomright_same_b	6	723	23	mask.bmp	blankscreen.bmp	wfd10.bmp	blankscreen.bmp	square.bmp
279	real_b	real_topleft_same_b	7	567	23	mask.bmp	blankscreen.bmp	wmn9.bmp	blankscreen.bmp	square.bmp
279	real_b	real_bottomright_diff_b	8	610	23	mask.bmp	blankscreen.bmp	wmd7.bmp	blankscreen.bmp	square.bmp
279	real_b	real_bottomleft_same_b	9	643	18	mask.bmp	blankscreen.bmp	wfd9.bmp	blankscreen.bmp	circle.bmp
279	real_b	real_bottomleft_diff_b	10	675	18	mask.bmp	blankscreen.bmp	wfn7.bmp	blankscreen.bmp	circle.bmp
279	real_b	real_topleft_diff_b	11	617	18	mask.bmp	blankscreen.bmp	wmd8.bmp	blankscreen.bmp	circle.bmp
279	real_b	real_topright_diff_b	12	563	23	mask.bmp	blankscreen.bmp	wfn6.bmp	blankscreen.bmp	circle.bmp
279	real_b	real_topright_diff_b	13	822	18	mask.bmp	blankscreen.bmp	wfd8.bmp	blankscreen.bmp	circle.bmp
279	real_b	real_topleft_diff_b	14	583	23	mask.bmp	blankscreen.bmp	wfd7.bmp	blankscreen.bmp	square.bmp
279	real_b	real_bottomright_diff_b	15	601	18	mask.bmp	blankscreen.bmp	wfn8.bmp	blankscreen.bmp	circle.bmp
279	real_b	real_bottomleft_diff_b	16	643	18	mask.bmp	blankscreen.bmp	wmn8.bmp	blankscreen.bmp	circle.bmp
279	real_b	real_bottomleft_same_b	17	722	23	mask.bmp	blankscreen.bmp	wmd10.bmp	blankscreen.bmp	square.bmp
279	real_b	real_topright_same_b	18	903	18	mask.bmp	blankscreen.bmp	wfn9.bmp	blankscreen.bmp	square.bmp
279	real_b	real_topright_diff_b	19	916	23	mask.bmp	blankscreen.bmp	wmn7.bmp	blankscreen.bmp	square.bmp
279	real_b	real_topleft_diff_b	20	568	23	mask.bmp	blankscreen.bmp	wmn6.bmp	blankscreen.bmp	square.bmp
279	real_c	real_topleft_diff_c	1	759	18	mask.bmp	blankscreen.bmp	wfd3.bmp	blankscreen.bmp	circle.bmp
279	real_c	real_bottomleft_same_c	2	777	23	mask.bmp	blankscreen.bmp	wmn1.bmp	blankscreen.bmp	square.bmp
279	real_c	real_topright_same_c	3	859	18	mask.bmp	blankscreen.bmp	wfn2.bmp	blankscreen.bmp	circle.bmp
279	real_c	real_bottomright_same_c	4	777	23	mask.bmp	blankscreen.bmp	wmn2.bmp	blankscreen.bmp	square.bmp
279	real_c	real_bottomleft_diff_c	5	635	23	mask.bmp	blankscreen.bmp	wmd5.bmp	blankscreen.bmp	square.bmp
279	real_c	real_bottomright_diff_c	6	676	18	mask.bmp	blankscreen.bmp	wmd3.bmp	blankscreen.bmp	circle.bmp
279	real_c	real_bottomright_diff_c	7	882	23	mask.bmp	blankscreen.bmp	wmn4.bmp	blankscreen.bmp	square.bmp
279	real_c	real_topright_same_c	8	696	18	mask.bmp	blankscreen.bmp	wmd1.bmp	blankscreen.bmp	circle.bmp
279	real_c	real_topleft_same_c	9	886	18	mask.bmp	blankscreen.bmp	wfd1.bmp	blankscreen.bmp	circle.bmp
279	real_c	real_topright_diff_c	10	755	23	mask.bmp	blankscreen.bmp	wmn3.bmp	blankscreen.bmp	square.bmp
279	real_c	real_topright_diff_c	11	631	18	mask.bmp	blankscreen.bmp	wmd4.bmp	blankscreen.bmp	circle.bmp
279	real_c	real_topleft_diff_c	12	743	23	mask.bmp	blankscreen.bmp	wfn4.bmp	blankscreen.bmp	square.bmp
279	real_c	real_topright_diff_c	13	698	23	mask.bmp	blankscreen.bmp	wfn5.bmp	blankscreen.bmp	square.bmp
279	real_c	real_topleft_diff_c	14	704	18	mask.bmp	blankscreen.bmp	wmn5.bmp	blankscreen.bmp	circle.bmp
279	real_c	real_topleft_same_c	15	790	23	mask.bmp	blankscreen.bmp	wfn1.bmp	blankscreen.bmp	square.bmp
279	real_c	real_bottomleft_diff_c	16	591	18	mask.bmp	blankscreen.bmp	wfd4.bmp	blankscreen.bmp	circle.bmp
279	real_c	real_bottomleft_diff_c	17	657	18	mask.bmp	blankscreen.bmp	wfn3.bmp	blankscreen.bmp	circle.bmp
279	real_c	real_bottomleft_same_c	18	584	23	mask.bmp	blankscreen.bmp	wfd2.bmp	blankscreen.bmp	square.bmp
279	real_c	real_bottomright_same_c	19	555	23	mask.bmp	blankscreen.bmp	wmd2.bmp	blankscreen.bmp	square.bmp
279	real_c	real_bottomright_diff_c	20	582	18	mask.bmp	blankscreen.bmp	wfd5.bmp	blankscreen.bmp	circle.bmp
279	real_d	real_topright_diff_d	1	754	23	mask.bmp	blankscreen.bmp	wfn8.bmp	blankscreen.bmp	square.bmp
279	real_d	real_bottomright_diff_d	2	605	18	mask.bmp	blankscreen.bmp	wfn9.bmp	blankscreen.bmp	circle.bmp
279	real_d	real_topright_same_d	3	895	18	mask.bmp	blankscreen.bmp	wmd7.bmp	blankscreen.bmp	circle.bmp
279	real_d	real_topright_diff_d	4	644	18	mask.bmp	blankscreen.bmp	wmd10.bmp	blankscreen.bmp	circle.bmp
279	real_d	real_bottomright_diff_d	5	387	18	mask.bmp	blankscreen.bmp	wfd8.bmp	blankscreen.bmp	circle.bmp
279	real_d	real_topleft_diff_d	6	455	18	mask.bmp	blankscreen.bmp	wmd9.bmp	blankscreen.bmp	circle.bmp
279	real_d	real_bottomleft_same_d	7	646	23	mask.bmp	blankscreen.bmp	wmn7.bmp	blankscreen.bmp	square.bmp
279	real_d	real_topleft_same_d	8	775	23	mask.bmp	blankscreen.bmp	wmn6.bmp	blankscreen.bmp	square.bmp
279	real_d	real_bottomleft_diff_d	9	632	23	mask.bmp	blankscreen.bmp	wmd8.bmp	blankscreen.bmp	square.bmp
279	real_d	real_bottomleft_same_d	10	697	18	mask.bmp	blankscreen.bmp	wfn6.bmp	blankscreen.bmp	circle.bmp
279	real_d	real_topleft_diff_d	11	367	18	mask.bmp	blankscreen.bmp	wfn10.bmp	blankscreen.bmp	circle.bmp
279	real_d	real_bottomright_same_d	12	531	23	mask.bmp	blankscreen.bmp	wfn7.bmp	blankscreen.bmp	square.bmp
279	real_d	real_topleft_same_d	13	591	23	mask.bmp	blankscreen.bmp	wmd6.bmp	blankscreen.bmp	square.bmp
279	real_d	real_topright_diff_d	14	489	23	mask.bmp	blankscreen.bmp	wfd9.bmp	blankscreen.bmp	square.bmp
279	real_d	real_bottomright_diff_d	15	487	23	mask.bmp	blankscreen.bmp	wmn10.bmp	blankscreen.bmp	square.bmp
279	real_d	real_topleft_diff_d	16	669	18	mask.bmp	blankscreen.bmp	wmn8.bmp	blankscreen.bmp	circle.bmp
279	real_d	real_bottomleft_diff_d	17	653	23	mask.bmp	blankscreen.bmp	wfd10.bmp	blankscreen.bmp	square.bmp
279	real_d	real_bottomleft_diff_d	18	748	23	mask.bmp	blankscreen.bmp	wmn9.bmp	blankscreen.bmp	square.bmp
279	real_d	real_topright_same_d	19	968	18	mask.bmp	blankscreen.bmp	wfd6.bmp	blankscreen.bmp	circle.bmp
279	real_d	real_bottomright_same_d	20	866	23	mask.bmp	blankscreen.bmp	wfd7.bmp	blankscreen.bmp	square.bmp
280	practice	practice_bottomleft_same	1	2454	18	mask.bmp	blankscreen.bmp	practice6.jpg	blankscreen.bmp	circle.bmp
280	practice	practice_topright_same	2	848	18	mask.bmp	blankscreen.bmp	practice4.jpg	blankscreen.bmp	circle.bmp
280	practice	practice_bottomleft_same	3	687	18	mask.bmp	blankscreen.bmp	practice5.jpg	blankscreen.bmp	circle.bmp
280	practice	practice_topleft_same	4	541	23	mask.bmp	blankscreen.bmp	practice2.jpg	blankscreen.bmp	square.bmp
280	practice	practice_bottomleft_diff	5	785	23	mask.bmp	blankscreen.bmp	practice11.jpg	blankscreen.bmp	square.bmp
280	practice	practice_topright_same	6	627	18	mask.bmp	blankscreen.bmp	practice3.jpg	blankscreen.bmp	circle.bmp
280	practice	practice_topleft_diff	7	1220	23	mask.bmp	blankscreen.bmp	practice9.jpg	blankscreen.bmp	square.bmp
280	practice	practice_bottomright_diff	8	883	18	mask.bmp	blankscreen.bmp	practice12.jpg	blankscreen.bmp	circle.bmp
280	practice	practice_bottomright_same	9	769	23	mask.bmp	blankscreen.bmp	practice7.jpg	blankscreen.bmp	square.bmp
280	practice	practice_topleft_same	10	588	23	mask.bmp	blankscreen.bmp	practice1.jpg	blankscreen.bmp	square.bmp
280	practice	practice_bottomright_same	11	533	18	mask.bmp	blankscreen.bmp	practice8.jpg	blankscreen.bmp	circle.bmp
280	practice	practice_topright_diff	12	426	23	mask.bmp	blankscreen.bmp	practice10.jpg	blankscreen.bmp	square.bmp
280	real_a	real_topleft_same_a	1	759	23	mask.bmp	blankscreen.bmp	wfn4.bmp	blankscreen.bmp	square.bmp
280	real_a	real_topright_diff_a	2	721	18	mask.bmp	blankscreen.bmp	wmd3.bmp	blankscreen.bmp	circle.bmp
280	real_a	real_topright_diff_a	3	686	23	mask.bmp	blankscreen.bmp	wmn1.bmp	blankscreen.bmp	square.bmp
280	real_a	real_topleft_diff_a	4	972	18	mask.bmp	blankscreen.bmp	wmd2.bmp	blankscreen.bmp	circle.bmp
280	real_a	real_topleft_diff_a	5	733	23	mask.bmp	blankscreen.bmp	wfd1.bmp	blankscreen.bmp	square.bmp
280	real_a	real_bottomleft_same_a	6	690	23	mask.bmp	blankscreen.bmp	wfn5.bmp	blankscreen.bmp	square.bmp
280	real_a	real_topright_same_a	7	623	23	mask.bmp	blankscreen.bmp	wmn4.bmp	blankscreen.bmp	square.bmp
280	real_a	real_topleft_same_a	8	648	23	mask.bmp	blankscreen.bmp	wfd4.bmp	blankscreen.bmp	square.bmp
280	real_a	real_topleft_diff_a	9	759	18	mask.bmp	blankscreen.bmp	wfn3.bmp	blankscreen.bmp	circle.bmp
280	real_a	real_bottomright_diff_a	10	682	18	mask.bmp	blankscreen.bmp	wfn2.bmp	blankscreen.bmp	circle.bmp
280	real_a	real_bottomleft_same_a	11	897	18	mask.bmp	blankscreen.bmp	wmd4.bmp	blankscreen.bmp	circle.bmp
280	real_a	real_topright_same_a	12	582	18	mask.bmp	blankscreen.bmp	wfd5.bmp	blankscreen.bmp	circle.bmp
280	real_a	real_bottomleft_diff_a	13	704	18	mask.bmp	blankscreen.bmp	wfn1.bmp	blankscreen.bmp	circle.bmp
280	real_a	real_bottomright_same_a	14	581	23	mask.bmp	blankscreen.bmp	wmd5.bmp	blankscreen.bmp	square.bmp
280	real_a	real_bottomleft_diff_a	15	872	18	mask.bmp	blankscreen.bmp	wmn2.bmp	blankscreen.bmp	circle.bmp
280	real_a	real_bottomright_diff_a	16	678	18	mask.bmp	blankscreen.bmp	wmn3.bmp	blankscreen.bmp	circle.bmp
280	real_a	real_bottomright_diff_a	17	716	18	mask.bmp	blankscreen.bmp	wmd1.bmp	blankscreen.bmp	circle.bmp
280	real_a	real_bottomleft_diff_a	18	753	23	mask.bmp	blankscreen.bmp	wfd3.bmp	blankscreen.bmp	square.bmp
280	real_a	real_bottomright_same_a	19	862	18	mask.bmp	blankscreen.bmp	wmn5.bmp	blankscreen.bmp	circle.bmp
280	real_a	real_topright_diff_a	20	787	18	mask.bmp	blankscreen.bmp	wfd2.bmp	blankscreen.bmp	circle.bmp
280	real_b	real_bottomright_same_b	1	737	18	mask.bmp	blankscreen.bmp	wfn10.bmp	blankscreen.bmp	circle.bmp
280	real_b	real_topright_diff_b	2	621	23	mask.bmp	blankscreen.bmp	wfd8.bmp	blankscreen.bmp	square.bmp
280	real_b	real_topright_diff_b	3	654	18	mask.bmp	blankscreen.bmp	wmn7.bmp	blankscreen.bmp	circle.bmp
280	real_b	real_bottomright_same_b	4	677	18	mask.bmp	blankscreen.bmp	wfd10.bmp	blankscreen.bmp	circle.bmp
280	real_b	real_topright_diff_b	5	619	23	mask.bmp	blankscreen.bmp	wfn6.bmp	blankscreen.bmp	square.bmp
280	real_b	real_bottomleft_same_b	6	636	18	mask.bmp	blankscreen.bmp	wfd9.bmp	blankscreen.bmp	circle.bmp
280	real_b	real_bottomleft_diff_b	7	637	18	mask.bmp	blankscreen.bmp	wfn7.bmp	blankscreen.bmp	circle.bmp
280	real_b	real_bottomright_diff_b	8	861	18	mask.bmp	blankscreen.bmp	wfd6.bmp	blankscreen.bmp	circle.bmp
280	real_b	real_bottomleft_diff_b	9	515	23	mask.bmp	blankscreen.bmp	wmn8.bmp	blankscreen.bmp	square.bmp
280	real_b	real_topleft_diff_b	10	624	23	mask.bmp	blankscreen.bmp	wfd7.bmp	blankscreen.bmp	square.bmp
280	real_b	real_topright_same_b	11	649	23	mask.bmp	blankscreen.bmp	wmn10.bmp	blankscreen.bmp	square.bmp
280	real_b	real_bottomright_diff_b	12	633	18	mask.bmp	blankscreen.bmp	wfn8.bmp	blankscreen.bmp	circle.bmp
280	real_b	real_topleft_same_b	13	497	23	mask.bmp	blankscreen.bmp	wmn9.bmp	blankscreen.bmp	square.bmp
280	real_b	real_bottomleft_same_b	14	848	23	mask.bmp	blankscreen.bmp	wmd10.bmp	blankscreen.bmp	square.bmp
280	real_b	real_topright_same_b	15	583	18	mask.bmp	blankscreen.bmp	wfn9.bmp	blankscreen.bmp	circle.bmp
280	real_b	real_topleft_diff_b	16	545	23	mask.bmp	blankscreen.bmp	wmd8.bmp	blankscreen.bmp	square.bmp
280	real_b	real_bottomleft_diff_b	17	734	18	mask.bmp	blankscreen.bmp	wmd6.bmp	blankscreen.bmp	circle.bmp
280	real_b	real_bottomright_diff_b	18	714	23	mask.bmp	blankscreen.bmp	wmd7.bmp	blankscreen.bmp	square.bmp
280	real_b	real_topleft_same_b	19	911	23	mask.bmp	blankscreen.bmp	wmd9.bmp	blankscreen.bmp	square.bmp
280	real_b	real_topleft_diff_b	20	739	18	mask.bmp	blankscreen.bmp	wmn6.bmp	blankscreen.bmp	circle.bmp
280	real_c	real_bottomleft_diff_c	1	868	23	mask.bmp	blankscreen.bmp	wfn3.bmp	blankscreen.bmp	square.bmp
280	real_c	real_topright_diff_c	2	971	23	mask.bmp	blankscreen.bmp	wmd4.bmp	blankscreen.bmp	square.bmp
280	real_c	real_topright_same_c	3	477	23	mask.bmp	blankscreen.bmp	wmd1.bmp	blankscreen.bmp	square.bmp
280	real_c	real_bottomright_diff_c	4	532	23	mask.bmp	blankscreen.bmp	wfd5.bmp	blankscreen.bmp	square.bmp
280	real_c	real_topleft_diff_c	5	721	23	mask.bmp	blankscreen.bmp	wfn4.bmp	blankscreen.bmp	square.bmp
280	real_c	real_topright_diff_c	6	565	23	mask.bmp	blankscreen.bmp	wmn3.bmp	blankscreen.bmp	square.bmp
280	real_c	real_bottomright_same_c	7	640	23	mask.bmp	blankscreen.bmp	wmn2.bmp	blankscreen.bmp	square.bmp
280	real_c	real_topleft_diff_c	8	872	23	mask.bmp	blankscreen.bmp	wfd3.bmp	blankscreen.bmp	square.bmp
280	real_c	real_topleft_same_c	9	790	18	mask.bmp	blankscreen.bmp	wfn1.bmp	blankscreen.bmp	circle.bmp
280	real_c	real_topright_same_c	10	535	18	mask.bmp	blankscreen.bmp	wfn2.bmp	blankscreen.bmp	circle.bmp
280	real_c	real_bottomright_same_c	11	636	18	mask.bmp	blankscreen.bmp	wmd2.bmp	blankscreen.bmp	circle.bmp
280	real_c	real_bottomleft_diff_c	12	508	18	mask.bmp	blankscreen.bmp	wmd5.bmp	blankscreen.bmp	circle.bmp
280	real_c	real_topleft_diff_c	13	530	23	mask.bmp	blankscreen.bmp	wmn5.bmp	blankscreen.bmp	square.bmp
280	real_c	real_topright_diff_c	14	551	23	mask.bmp	blankscreen.bmp	wfn5.bmp	blankscreen.bmp	square.bmp
280	real_c	real_bottomright_diff_c	15	739	23	mask.bmp	blankscreen.bmp	wmd3.bmp	blankscreen.bmp	square.bmp
280	real_c	real_bottomleft_same_c	16	822	23	mask.bmp	blankscreen.bmp	wfd2.bmp	blankscreen.bmp	square.bmp
280	real_c	real_topleft_same_c	17	550	23	mask.bmp	blankscreen.bmp	wfd1.bmp	blankscreen.bmp	square.bmp
280	real_c	real_bottomleft_diff_c	18	554	23	mask.bmp	blankscreen.bmp	wfd4.bmp	blankscreen.bmp	square.bmp
280	real_c	real_bottomleft_same_c	19	622	23	mask.bmp	blankscreen.bmp	wmn1.bmp	blankscreen.bmp	square.bmp
280	real_c	real_bottomright_diff_c	20	487	23	mask.bmp	blankscreen.bmp	wmn4.bmp	blankscreen.bmp	square.bmp
280	real_d	real_topright_diff_d	1	498	23	mask.bmp	blankscreen.bmp	wfd9.bmp	blankscreen.bmp	square.bmp
280	real_d	real_topleft_diff_d	2	544	18	mask.bmp	blankscreen.bmp	wmn8.bmp	blankscreen.bmp	circle.bmp
280	real_d	real_bottomleft_diff_d	3	572	23	mask.bmp	blankscreen.bmp	wmd8.bmp	blankscreen.bmp	square.bmp
280	real_d	real_topright_diff_d	4	567	23	mask.bmp	blankscreen.bmp	wfn8.bmp	blankscreen.bmp	square.bmp
280	real_d	real_bottomleft_same_d	5	562	23	mask.bmp	blankscreen.bmp	wmn7.bmp	blankscreen.bmp	square.bmp
280	real_d	real_bottomright_same_d	6	718	23	mask.bmp	blankscreen.bmp	wfd7.bmp	blankscreen.bmp	square.bmp
280	real_d	real_bottomright_diff_d	7	618	18	mask.bmp	blankscreen.bmp	wfn9.bmp	blankscreen.bmp	circle.bmp
280	real_d	real_topleft_diff_d	8	644	18	mask.bmp	blankscreen.bmp	wfn10.bmp	blankscreen.bmp	circle.bmp
280	real_d	real_bottomleft_same_d	9	547	23	mask.bmp	blankscreen.bmp	wfn6.bmp	blankscreen.bmp	square.bmp
280	real_d	real_topleft_diff_d	10	584	18	mask.bmp	blankscreen.bmp	wmd9.bmp	blankscreen.bmp	circle.bmp
280	real_d	real_topleft_same_d	11	506	18	mask.bmp	blankscreen.bmp	wmn6.bmp	blankscreen.bmp	circle.bmp
280	real_d	real_bottomright_diff_d	12	560	23	mask.bmp	blankscreen.bmp	wmn10.bmp	blankscreen.bmp	square.bmp
280	real_d	real_bottomleft_diff_d	13	467	23	mask.bmp	blankscreen.bmp	wfd10.bmp	blankscreen.bmp	square.bmp
280	real_d	real_topleft_same_d	14	499	23	mask.bmp	blankscreen.bmp	wmd6.bmp	blankscreen.bmp	square.bmp
280	real_d	real_bottomright_same_d	15	561	18	mask.bmp	blankscreen.bmp	wfn7.bmp	blankscreen.bmp	circle.bmp
280	real_d	real_topright_same_d	16	420	23	mask.bmp	blankscreen.bmp	wfd6.bmp	blankscreen.bmp	square.bmp
280	real_d	real_bottomright_diff_d	17	750	18	mask.bmp	blankscreen.bmp	wfd8.bmp	blankscreen.bmp	circle.bmp
280	real_d	real_topright_diff_d	18	601	23	mask.bmp	blankscreen.bmp	wmd10.bmp	blankscreen.bmp	square.bmp
280	real_d	real_bottomleft_diff_d	19	587	18	mask.bmp	blankscreen.bmp	wmn9.bmp	blankscreen.bmp	circle.bmp
280	real_d	real_topright_same_d	20	598	23	mask.bmp	blankscreen.bmp	wmd7.bmp	blankscreen.bmp	square.bmp
281	practice	practice_bottomright_same	1	1403	18	mask.bmp	blankscreen.bmp	practice7.jpg	blankscreen.bmp	circle.bmp
281	practice	practice_bottomleft_diff	2	595	23	mask.bmp	blankscreen.bmp	practice11.jpg	blankscreen.bmp	square.bmp
281	practice	practice_topleft_same	3	1837	23	mask.bmp	blankscreen.bmp	practice1.jpg	blankscreen.bmp	square.bmp
281	practice	practice_bottomright_diff	4	1282	18	mask.bmp	blankscreen.bmp	practice12.jpg	blankscreen.bmp	circle.bmp
281	practice	practice_topleft_diff	5	758	18	mask.bmp	blankscreen.bmp	practice9.jpg	blankscreen.bmp	circle.bmp
281	practice	practice_bottomright_same	6	625	18	mask.bmp	blankscreen.bmp	practice8.jpg	blankscreen.bmp	circle.bmp
281	practice	practice_topright_diff	7	610	23	mask.bmp	blankscreen.bmp	practice10.jpg	blankscreen.bmp	square.bmp
281	practice	practice_bottomleft_same	8	1531	23	mask.bmp	blankscreen.bmp	practice5.jpg	blankscreen.bmp	square.bmp
281	practice	practice_bottomleft_same	9	1189	18	mask.bmp	blankscreen.bmp	practice6.jpg	blankscreen.bmp	circle.bmp
281	practice	practice_topright_same	10	1054	18	mask.bmp	blankscreen.bmp	practice4.jpg	blankscreen.bmp	circle.bmp
281	practice	practice_topright_same	11	492	23	mask.bmp	blankscreen.bmp	practice3.jpg	blankscreen.bmp	square.bmp
281	practice	practice_topleft_same	12	1066	23	mask.bmp	blankscreen.bmp	practice2.jpg	blankscreen.bmp	square.bmp
281	real_a	real_bottomright_diff_a	1	4505	18	mask.bmp	blankscreen.bmp	wfn2.bmp	blankscreen.bmp	circle.bmp
281	real_a	real_bottomleft_diff_a	2	835	23	mask.bmp	blankscreen.bmp	wfd3.bmp	blankscreen.bmp	square.bmp
281	real_a	real_topleft_diff_a	3	651	18	mask.bmp	blankscreen.bmp	wfd1.bmp	blankscreen.bmp	circle.bmp
281	real_a	real_topright_same_a	4	211	23	mask.bmp	blankscreen.bmp	wfd5.bmp	blankscreen.bmp	square.bmp
281	real_a	real_topleft_diff_a	5	773	23	mask.bmp	blankscreen.bmp	wfn3.bmp	blankscreen.bmp	square.bmp
281	real_a	real_topright_diff_a	6	487	18	mask.bmp	blankscreen.bmp	wfd2.bmp	blankscreen.bmp	circle.bmp
281	real_a	real_bottomright_same_a	7	534	23	mask.bmp	blankscreen.bmp	wmd5.bmp	blankscreen.bmp	square.bmp
281	real_a	real_bottomright_diff_a	8	594	23	mask.bmp	blankscreen.bmp	wmn3.bmp	blankscreen.bmp	square.bmp
281	real_a	real_bottomleft_diff_a	9	892	23	mask.bmp	blankscreen.bmp	wmn2.bmp	blankscreen.bmp	square.bmp
281	real_a	real_topright_same_a	10	370	23	mask.bmp	blankscreen.bmp	wmn4.bmp	blankscreen.bmp	square.bmp
281	real_a	real_topleft_same_a	11	333	18	mask.bmp	blankscreen.bmp	wfd4.bmp	blankscreen.bmp	circle.bmp
281	real_a	real_topleft_same_a	12	778	23	mask.bmp	blankscreen.bmp	wfn4.bmp	blankscreen.bmp	square.bmp
281	real_a	real_bottomright_same_a	13	356	23	mask.bmp	blankscreen.bmp	wmn5.bmp	blankscreen.bmp	square.bmp
281	real_a	real_bottomleft_same_a	14	480	18	mask.bmp	blankscreen.bmp	wmd4.bmp	blankscreen.bmp	circle.bmp
281	real_a	real_topleft_diff_a	15	647	18	mask.bmp	blankscreen.bmp	wmd2.bmp	blankscreen.bmp	circle.bmp
281	real_a	real_bottomright_diff_a	16	543	18	mask.bmp	blankscreen.bmp	wmd1.bmp	blankscreen.bmp	square.bmp
281	real_a	real_topright_diff_a	17	779	23	mask.bmp	blankscreen.bmp	wmd3.bmp	blankscreen.bmp	square.bmp
281	real_a	real_topright_diff_a	18	765	23	mask.bmp	blankscreen.bmp	wmn1.bmp	blankscreen.bmp	square.bmp
281	real_a	real_bottomleft_diff_a	19	576	23	mask.bmp	blankscreen.bmp	wfn1.bmp	blankscreen.bmp	square.bmp
281	real_a	real_bottomleft_same_a	20	531	18	mask.bmp	blankscreen.bmp	wfn5.bmp	blankscreen.bmp	circle.bmp
281	real_b	real_bottomleft_same_b	1	1258	23	mask.bmp	blankscreen.bmp	wfd9.bmp	blankscreen.bmp	square.bmp
281	real_b	real_topleft_diff_b	2	551	23	mask.bmp	blankscreen.bmp	wfd7.bmp	blankscreen.bmp	square.bmp
281	real_b	real_topright_same_b	3	587	23	mask.bmp	blankscreen.bmp	wfn9.bmp	blankscreen.bmp	square.bmp
281	real_b	real_bottomleft_diff_b	4	525	23	mask.bmp	blankscreen.bmp	wmn8.bmp	blankscreen.bmp	square.bmp
281	real_b	real_bottomright_diff_b	5	698	18	mask.bmp	blankscreen.bmp	wmd7.bmp	blankscreen.bmp	circle.bmp
281	real_b	real_bottomleft_same_b	6	744	23	mask.bmp	blankscreen.bmp	wmd10.bmp	blankscreen.bmp	square.bmp
281	real_b	real_topright_diff_b	7	1819	18	mask.bmp	blankscreen.bmp	wfn6.bmp	blankscreen.bmp	circle.bmp
281	real_b	real_topleft_same_b	8	432	18	mask.bmp	blankscreen.bmp	wmn9.bmp	blankscreen.bmp	circle.bmp
281	real_b	real_topleft_diff_b	9	682	18	mask.bmp	blankscreen.bmp	wmn6.bmp	blankscreen.bmp	circle.bmp
281	real_b	real_topleft_diff_b	10	632	18	mask.bmp	blankscreen.bmp	wmd8.bmp	blankscreen.bmp	circle.bmp
281	real_b	real_bottomright_same_b	11	304	23	mask.bmp	blankscreen.bmp	wfd10.bmp	blankscreen.bmp	circle.bmp
281	real_b	real_topright_diff_b	12	759	23	mask.bmp	blankscreen.bmp	wfd8.bmp	blankscreen.bmp	square.bmp
281	real_b	real_topright_diff_b	13	474	18	mask.bmp	blankscreen.bmp	wmn7.bmp	blankscreen.bmp	circle.bmp
281	real_b	real_topright_same_b	14	1368	18	mask.bmp	blankscreen.bmp	wmn10.bmp	blankscreen.bmp	circle.bmp
281	real_b	real_bottomleft_diff_b	15	825	18	mask.bmp	blankscreen.bmp	wmd6.bmp	blankscreen.bmp	circle.bmp
281	real_b	real_bottomright_diff_b	16	737	23	mask.bmp	blankscreen.bmp	wfd6.bmp	blankscreen.bmp	square.bmp
281	real_b	real_bottomleft_diff_b	17	621	23	mask.bmp	blankscreen.bmp	wfn7.bmp	blankscreen.bmp	square.bmp
281	real_b	real_bottomright_diff_b	18	1014	18	mask.bmp	blankscreen.bmp	wfn8.bmp	blankscreen.bmp	circle.bmp
281	real_b	real_bottomright_same_b	19	806	18	mask.bmp	blankscreen.bmp	wfn10.bmp	blankscreen.bmp	circle.bmp
281	real_b	real_topleft_same_b	20	1679	23	mask.bmp	blankscreen.bmp	wmd9.bmp	blankscreen.bmp	square.bmp
281	real_c	real_topleft_same_c	1	626	18	mask.bmp	blankscreen.bmp	wfn1.bmp	blankscreen.bmp	circle.bmp
281	real_c	real_topleft_same_c	2	395	23	mask.bmp	blankscreen.bmp	wfd1.bmp	blankscreen.bmp	square.bmp
281	real_c	real_bottomright_diff_c	3	813	23	mask.bmp	blankscreen.bmp	wmn4.bmp	blankscreen.bmp	square.bmp
281	real_c	real_topleft_diff_c	4	1286	23	mask.bmp	blankscreen.bmp	wfd3.bmp	blankscreen.bmp	square.bmp
281	real_c	real_topright_same_c	5	570	23	mask.bmp	blankscreen.bmp	wmd1.bmp	blankscreen.bmp	square.bmp
281	real_c	real_bottomleft_same_c	6	549	18	mask.bmp	blankscreen.bmp	wfd2.bmp	blankscreen.bmp	circle.bmp
281	real_c	real_bottomright_same_c	7	1529	18	mask.bmp	blankscreen.bmp	wmd2.bmp	blankscreen.bmp	circle.bmp
281	real_c	real_bottomleft_diff_c	8	499	18	mask.bmp	blankscreen.bmp	wfd4.bmp	blankscreen.bmp	circle.bmp
281	real_c	real_bottomright_diff_c	9	641	18	mask.bmp	blankscreen.bmp	wfd5.bmp	blankscreen.bmp	circle.bmp
281	real_c	real_topleft_diff_c	10	737	18	mask.bmp	blankscreen.bmp	wfn4.bmp	blankscreen.bmp	circle.bmp
281	real_c	real_topright_diff_c	11	109	23	mask.bmp	blankscreen.bmp	wmd4.bmp	blankscreen.bmp	circle.bmp
281	real_c	real_bottomleft_same_c	12	516	18	mask.bmp	blankscreen.bmp	wmn1.bmp	blankscreen.bmp	square.bmp
281	real_c	real_bottomright_same_c	13	689	18	mask.bmp	blankscreen.bmp	wmn2.bmp	blankscreen.bmp	circle.bmp
281	real_c	real_topright_diff_c	14	839	23	mask.bmp	blankscreen.bmp	wmn3.bmp	blankscreen.bmp	square.bmp
281	real_c	real_bottomright_diff_c	15	1062	23	mask.bmp	blankscreen.bmp	wmd3.bmp	blankscreen.bmp	square.bmp
281	real_c	real_bottomleft_diff_c	16	516	18	mask.bmp	blankscreen.bmp	wmd5.bmp	blankscreen.bmp	circle.bmp
281	real_c	real_bottomleft_diff_c	17	569	23	mask.bmp	blankscreen.bmp	wfn3.bmp	blankscreen.bmp	circle.bmp
281	real_c	real_topleft_diff_c	18	1430	18	mask.bmp	blankscreen.bmp	wmn5.bmp	blankscreen.bmp	circle.bmp
281	real_c	real_topright_same_c	19	787	23	mask.bmp	blankscreen.bmp	wfn2.bmp	blankscreen.bmp	square.bmp
281	real_c	real_topright_diff_c	20	917	23	mask.bmp	blankscreen.bmp	wfn5.bmp	blankscreen.bmp	square.bmp
281	real_d	real_topleft_diff_d	1	413	18	mask.bmp	blankscreen.bmp	wfn10.bmp	blankscreen.bmp	circle.bmp
281	real_d	real_topleft_diff_d	2	511	23	mask.bmp	blankscreen.bmp	wmd9.bmp	blankscreen.bmp	square.bmp
281	real_d	real_bottomleft_same_d	3	1253	18	mask.bmp	blankscreen.bmp	wmn7.bmp	blankscreen.bmp	circle.bmp
281	real_d	real_bottomleft_same_d	4	723	23	mask.bmp	blankscreen.bmp	wfn6.bmp	blankscreen.bmp	square.bmp
281	real_d	real_bottomright_same_d	5	1079	23	mask.bmp	blankscreen.bmp	wfn7.bmp	blankscreen.bmp	square.bmp
281	real_d	real_bottomright_diff_d	6	692	18	mask.bmp	blankscreen.bmp	wfd8.bmp	blankscreen.bmp	circle.bmp
281	real_d	real_bottomleft_diff_d	7	610	23	mask.bmp	blankscreen.bmp	wmn9.bmp	blankscreen.bmp	square.bmp
281	real_d	real_bottomleft_diff_d	8	4179	23	mask.bmp	blankscreen.bmp	wmd8.bmp	blankscreen.bmp	square.bmp
281	real_d	real_topright_diff_d	9	1748	18	mask.bmp	blankscreen.bmp	wfn8.bmp	blankscreen.bmp	circle.bmp
281	real_d	real_bottomleft_diff_d	10	1748	23	mask.bmp	blankscreen.bmp	wfd10.bmp	blankscreen.bmp	square.bmp
281	real_d	real_topleft_diff_d	11	965	18	mask.bmp	blankscreen.bmp	wmn8.bmp	blankscreen.bmp	circle.bmp
281	real_d	real_topright_same_d	12	2223	23	mask.bmp	blankscreen.bmp	wfd6.bmp	blankscreen.bmp	square.bmp
281	real_d	real_topleft_same_d	13	747	23	mask.bmp	blankscreen.bmp	wmd6.bmp	blankscreen.bmp	square.bmp
281	real_d	real_topleft_same_d	14	2415	23	mask.bmp	blankscreen.bmp	wmn6.bmp	blankscreen.bmp	square.bmp
281	real_d	real_bottomright_diff_d	15	827	18	mask.bmp	blankscreen.bmp	wmn10.bmp	blankscreen.bmp	circle.bmp
281	real_d	real_bottomright_same_d	16	1226	18	mask.bmp	blankscreen.bmp	wfd7.bmp	blankscreen.bmp	circle.bmp
281	real_d	real_topright_same_d	17	1121	23	mask.bmp	blankscreen.bmp	wmd7.bmp	blankscreen.bmp	square.bmp
281	real_d	real_topright_diff_d	18	837	23	mask.bmp	blankscreen.bmp	wfd9.bmp	blankscreen.bmp	square.bmp
281	real_d	real_topright_diff_d	19	1853	23	mask.bmp	blankscreen.bmp	wmd10.bmp	blankscreen.bmp	square.bmp
281	real_d	real_bottomright_diff_d	20	1697	18	mask.bmp	blankscreen.bmp	wfn9.bmp	blankscreen.bmp	circle.bmp
283	practice	practice_topright_diff	1	999	18	mask.bmp	blankscreen.bmp	practice10.jpg	blankscreen.bmp	circle.bmp
283	practice	practice_topright_same	2	576	18	mask.bmp	blankscreen.bmp	practice4.jpg	blankscreen.bmp	square.bmp
283	practice	practice_bottomright_same	3	946	18	mask.bmp	blankscreen.bmp	practice7.jpg	blankscreen.bmp	circle.bmp
283	practice	practice_topright_same	4	669	18	mask.bmp	blankscreen.bmp	practice3.jpg	blankscreen.bmp	circle.bmp
283	practice	practice_bottomleft_diff	5	52	23	mask.bmp	blankscreen.bmp	practice11.jpg	blankscreen.bmp	circle.bmp
283	practice	practice_topleft_diff	6	805	23	mask.bmp	blankscreen.bmp	practice9.jpg	blankscreen.bmp	square.bmp
283	practice	practice_bottomleft_same	7	702	23	mask.bmp	blankscreen.bmp	practice5.jpg	blankscreen.bmp	square.bmp
283	practice	practice_bottomleft_same	8	611	23	mask.bmp	blankscreen.bmp	practice6.jpg	blankscreen.bmp	square.bmp
283	practice	practice_topleft_same	9	541	18	mask.bmp	blankscreen.bmp	practice1.jpg	blankscreen.bmp	circle.bmp
283	practice	practice_bottomright_diff	10	529	18	mask.bmp	blankscreen.bmp	practice12.jpg	blankscreen.bmp	circle.bmp
283	practice	practice_bottomright_same	11	470	18	mask.bmp	blankscreen.bmp	practice8.jpg	blankscreen.bmp	circle.bmp
283	practice	practice_topleft_same	12	685	18	mask.bmp	blankscreen.bmp	practice2.jpg	blankscreen.bmp	circle.bmp
283	real_a	real_bottomright_same_a	1	1577	23	mask.bmp	blankscreen.bmp	wmd5.bmp	blankscreen.bmp	square.bmp
283	real_a	real_bottomright_same_a	2	600	23	mask.bmp	blankscreen.bmp	wmn5.bmp	blankscreen.bmp	square.bmp
283	real_a	real_bottomleft_diff_a	3	474	18	mask.bmp	blankscreen.bmp	wfn1.bmp	blankscreen.bmp	circle.bmp
283	real_a	real_bottomleft_same_a	4	513	18	mask.bmp	blankscreen.bmp	wfn5.bmp	blankscreen.bmp	circle.bmp
283	real_a	real_bottomright_diff_a	5	599	23	mask.bmp	blankscreen.bmp	wmn3.bmp	blankscreen.bmp	square.bmp
283	real_a	real_topleft_diff_a	6	489	23	mask.bmp	blankscreen.bmp	wmd2.bmp	blankscreen.bmp	square.bmp
283	real_a	real_bottomleft_same_a	7	479	23	mask.bmp	blankscreen.bmp	wmd4.bmp	blankscreen.bmp	circle.bmp
283	real_a	real_topright_same_a	8	734	18	mask.bmp	blankscreen.bmp	wfd5.bmp	blankscreen.bmp	square.bmp
283	real_a	real_bottomleft_diff_a	9	586	18	mask.bmp	blankscreen.bmp	wfd3.bmp	blankscreen.bmp	circle.bmp
283	real_a	real_bottomleft_diff_a	10	909	18	mask.bmp	blankscreen.bmp	wmn2.bmp	blankscreen.bmp	circle.bmp
283	real_a	real_topright_diff_a	11	681	18	mask.bmp	blankscreen.bmp	wfd2.bmp	blankscreen.bmp	circle.bmp
283	real_a	real_topleft_diff_a	12	552	23	mask.bmp	blankscreen.bmp	wfn3.bmp	blankscreen.bmp	square.bmp
283	real_a	real_topright_same_a	13	732	23	mask.bmp	blankscreen.bmp	wmn4.bmp	blankscreen.bmp	circle.bmp
283	real_a	real_topleft_same_a	14	1144	18	mask.bmp	blankscreen.bmp	wfd4.bmp	blankscreen.bmp	circle.bmp
283	real_a	real_bottomright_diff_a	15	530	23	mask.bmp	blankscreen.bmp	wmd1.bmp	blankscreen.bmp	square.bmp
283	real_a	real_topleft_diff_a	16	551	23	mask.bmp	blankscreen.bmp	wfd1.bmp	blankscreen.bmp	square.bmp
283	real_a	real_topright_diff_a	17	907	18	mask.bmp	blankscreen.bmp	wmd3.bmp	blankscreen.bmp	circle.bmp
283	real_a	real_bottomright_diff_a	18	536	18	mask.bmp	blankscreen.bmp	wfn2.bmp	blankscreen.bmp	circle.bmp
283	real_a	real_topleft_same_a	19	564	23	mask.bmp	blankscreen.bmp	wfn4.bmp	blankscreen.bmp	square.bmp
283	real_a	real_topright_diff_a	20	864	23	mask.bmp	blankscreen.bmp	wmn1.bmp	blankscreen.bmp	square.bmp
283	real_b	real_bottomright_diff_b	1	538	18	mask.bmp	blankscreen.bmp	wfn8.bmp	blankscreen.bmp	circle.bmp
283	real_b	real_bottomleft_diff_b	2	638	18	mask.bmp	blankscreen.bmp	wfn7.bmp	blankscreen.bmp	circle.bmp
283	real_b	real_bottomright_same_b	3	630	18	mask.bmp	blankscreen.bmp	wfd10.bmp	blankscreen.bmp	circle.bmp
283	real_b	real_bottomright_same_b	4	646	23	mask.bmp	blankscreen.bmp	wfn10.bmp	blankscreen.bmp	square.bmp
283	real_b	real_topright_diff_b	5	662	23	mask.bmp	blankscreen.bmp	wfn6.bmp	blankscreen.bmp	square.bmp
283	real_b	real_bottomright_diff_b	6	501	23	mask.bmp	blankscreen.bmp	wfd6.bmp	blankscreen.bmp	square.bmp
283	real_b	real_topleft_same_b	7	603	23	mask.bmp	blankscreen.bmp	wmd9.bmp	blankscreen.bmp	square.bmp
283	real_b	real_bottomleft_same_b	8	573	18	mask.bmp	blankscreen.bmp	wmd10.bmp	blankscreen.bmp	circle.bmp
283	real_b	real_topright_diff_b	9	655	18	mask.bmp	blankscreen.bmp	wfd8.bmp	blankscreen.bmp	circle.bmp
283	real_b	real_bottomleft_diff_b	10	622	18	mask.bmp	blankscreen.bmp	wmn8.bmp	blankscreen.bmp	circle.bmp
283	real_b	real_topleft_diff_b	11	679	18	mask.bmp	blankscreen.bmp	wmn6.bmp	blankscreen.bmp	circle.bmp
283	real_b	real_topleft_diff_b	12	685	18	mask.bmp	blankscreen.bmp	wmd8.bmp	blankscreen.bmp	circle.bmp
283	real_b	real_topleft_same_b	13	484	23	mask.bmp	blankscreen.bmp	wmn9.bmp	blankscreen.bmp	square.bmp
283	real_b	real_topright_diff_b	14	587	18	mask.bmp	blankscreen.bmp	wmn7.bmp	blankscreen.bmp	circle.bmp
283	real_b	real_bottomleft_diff_b	15	484	18	mask.bmp	blankscreen.bmp	wmd6.bmp	blankscreen.bmp	circle.bmp
283	real_b	real_bottomright_diff_b	16	467	18	mask.bmp	blankscreen.bmp	wmd7.bmp	blankscreen.bmp	circle.bmp
283	real_b	real_bottomleft_same_b	17	587	23	mask.bmp	blankscreen.bmp	wfd9.bmp	blankscreen.bmp	square.bmp
283	real_b	real_topleft_diff_b	18	597	18	mask.bmp	blankscreen.bmp	wfd7.bmp	blankscreen.bmp	circle.bmp
283	real_b	real_topright_same_b	19	455	23	mask.bmp	blankscreen.bmp	wfn9.bmp	blankscreen.bmp	square.bmp
283	real_b	real_topright_same_b	20	527	18	mask.bmp	blankscreen.bmp	wmn10.bmp	blankscreen.bmp	circle.bmp
283	real_c	real_topleft_same_c	1	831	23	mask.bmp	blankscreen.bmp	wfd1.bmp	blankscreen.bmp	square.bmp
283	real_c	real_bottomright_diff_c	2	614	18	mask.bmp	blankscreen.bmp	wfd5.bmp	blankscreen.bmp	circle.bmp
283	real_c	real_bottomleft_same_c	3	480	23	mask.bmp	blankscreen.bmp	wfd2.bmp	blankscreen.bmp	square.bmp
283	real_c	real_topright_same_c	4	623	18	mask.bmp	blankscreen.bmp	wmd1.bmp	blankscreen.bmp	circle.bmp
283	real_c	real_bottomleft_diff_c	5	551	18	mask.bmp	blankscreen.bmp	wfn3.bmp	blankscreen.bmp	circle.bmp
283	real_c	real_bottomright_diff_c	6	628	18	mask.bmp	blankscreen.bmp	wmd3.bmp	blankscreen.bmp	circle.bmp
283	real_c	real_topleft_diff_c	7	572	23	mask.bmp	blankscreen.bmp	wfd3.bmp	blankscreen.bmp	square.bmp
283	real_c	real_bottomleft_same_c	8	639	18	mask.bmp	blankscreen.bmp	wmn1.bmp	blankscreen.bmp	square.bmp
283	real_c	real_topleft_diff_c	9	510	18	mask.bmp	blankscreen.bmp	wmn5.bmp	blankscreen.bmp	circle.bmp
283	real_c	real_bottomleft_diff_c	10	524	23	mask.bmp	blankscreen.bmp	wfd4.bmp	blankscreen.bmp	square.bmp
283	real_c	real_topright_diff_c	11	673	18	mask.bmp	blankscreen.bmp	wmd4.bmp	blankscreen.bmp	circle.bmp
283	real_c	real_topleft_diff_c	12	599	18	mask.bmp	blankscreen.bmp	wfn4.bmp	blankscreen.bmp	circle.bmp
283	real_c	real_topright_same_c	13	833	18	mask.bmp	blankscreen.bmp	wfn2.bmp	blankscreen.bmp	circle.bmp
283	real_c	real_bottomright_diff_c	14	969	23	mask.bmp	blankscreen.bmp	wmn4.bmp	blankscreen.bmp	square.bmp
283	real_c	real_topright_diff_c	15	731	18	mask.bmp	blankscreen.bmp	wmn3.bmp	blankscreen.bmp	circle.bmp
283	real_c	real_bottomright_same_c	16	727	18	mask.bmp	blankscreen.bmp	wmn2.bmp	blankscreen.bmp	circle.bmp
283	real_c	real_topleft_same_c	17	1812	18	mask.bmp	blankscreen.bmp	wfn1.bmp	blankscreen.bmp	circle.bmp
283	real_c	real_topright_diff_c	18	785	23	mask.bmp	blankscreen.bmp	wfn5.bmp	blankscreen.bmp	square.bmp
283	real_c	real_bottomright_same_c	19	891	23	mask.bmp	blankscreen.bmp	wmd2.bmp	blankscreen.bmp	square.bmp
283	real_c	real_bottomleft_diff_c	20	600	18	mask.bmp	blankscreen.bmp	wmd5.bmp	blankscreen.bmp	circle.bmp
283	real_d	real_topleft_same_d	1	686	18	mask.bmp	blankscreen.bmp	wmn6.bmp	blankscreen.bmp	circle.bmp
283	real_d	real_topleft_diff_d	2	756	23	mask.bmp	blankscreen.bmp	wmd9.bmp	blankscreen.bmp	square.bmp
283	real_d	real_topleft_diff_d	3	655	18	mask.bmp	blankscreen.bmp	wfn10.bmp	blankscreen.bmp	circle.bmp
283	real_d	real_bottomleft_diff_d	4	542	18	mask.bmp	blankscreen.bmp	wfd10.bmp	blankscreen.bmp	circle.bmp
283	real_d	real_topleft_same_d	5	650	23	mask.bmp	blankscreen.bmp	wmd6.bmp	blankscreen.bmp	square.bmp
283	real_d	real_bottomright_same_d	6	609	23	mask.bmp	blankscreen.bmp	wfn7.bmp	blankscreen.bmp	circle.bmp
283	real_d	real_topright_diff_d	7	579	23	mask.bmp	blankscreen.bmp	wfd9.bmp	blankscreen.bmp	square.bmp
283	real_d	real_topright_diff_d	8	630	23	mask.bmp	blankscreen.bmp	wmd10.bmp	blankscreen.bmp	square.bmp
283	real_d	real_bottomleft_same_d	9	566	18	mask.bmp	blankscreen.bmp	wfn6.bmp	blankscreen.bmp	circle.bmp
283	real_d	real_bottomright_same_d	10	786	23	mask.bmp	blankscreen.bmp	wfd7.bmp	blankscreen.bmp	square.bmp
283	real_d	real_bottomright_diff_d	11	516	18	mask.bmp	blankscreen.bmp	wfd8.bmp	blankscreen.bmp	circle.bmp
283	real_d	real_topright_diff_d	12	689	18	mask.bmp	blankscreen.bmp	wfn8.bmp	blankscreen.bmp	circle.bmp
283	real_d	real_topright_same_d	13	639	23	mask.bmp	blankscreen.bmp	wfd6.bmp	blankscreen.bmp	square.bmp
283	real_d	real_bottomright_diff_d	14	615	23	mask.bmp	blankscreen.bmp	wfn9.bmp	blankscreen.bmp	circle.bmp
283	real_d	real_topleft_diff_d	15	736	18	mask.bmp	blankscreen.bmp	wmn8.bmp	blankscreen.bmp	circle.bmp
283	real_d	real_bottomleft_diff_d	16	668	23	mask.bmp	blankscreen.bmp	wmd8.bmp	blankscreen.bmp	square.bmp
283	real_d	real_topright_same_d	17	555	18	mask.bmp	blankscreen.bmp	wmd7.bmp	blankscreen.bmp	circle.bmp
283	real_d	real_bottomleft_same_d	18	790	23	mask.bmp	blankscreen.bmp	wmn7.bmp	blankscreen.bmp	square.bmp
283	real_d	real_bottomleft_diff_d	19	544	23	mask.bmp	blankscreen.bmp	wmn9.bmp	blankscreen.bmp	square.bmp
283	real_d	real_bottomright_diff_d	20	508	18	mask.bmp	blankscreen.bmp	wmn10.bmp	blankscreen.bmp	circle.bmp
285	practice	practice_bottomleft_same	1	1742	23	mask.bmp	blankscreen.bmp	practice6.jpg	blankscreen.bmp	square.bmp
285	practice	practice_topleft_same	2	1063	23	mask.bmp	blankscreen.bmp	practice1.jpg	blankscreen.bmp	square.bmp
285	practice	practice_bottomright_diff	3	861	23	mask.bmp	blankscreen.bmp	practice12.jpg	blankscreen.bmp	square.bmp
285	practice	practice_topright_diff	4	515	18	mask.bmp	blankscreen.bmp	practice10.jpg	blankscreen.bmp	circle.bmp
285	practice	practice_bottomleft_same	5	689	23	mask.bmp	blankscreen.bmp	practice5.jpg	blankscreen.bmp	square.bmp
285	practice	practice_bottomright_same	6	718	18	mask.bmp	blankscreen.bmp	practice8.jpg	blankscreen.bmp	circle.bmp
285	practice	practice_topright_same	7	947	18	mask.bmp	blankscreen.bmp	practice4.jpg	blankscreen.bmp	circle.bmp
285	practice	practice_topleft_same	8	382	18	mask.bmp	blankscreen.bmp	practice2.jpg	blankscreen.bmp	circle.bmp
285	practice	practice_bottomright_same	9	561	23	mask.bmp	blankscreen.bmp	practice7.jpg	blankscreen.bmp	square.bmp
285	practice	practice_topleft_diff	10	637	23	mask.bmp	blankscreen.bmp	practice9.jpg	blankscreen.bmp	square.bmp
285	practice	practice_topright_same	11	325	23	mask.bmp	blankscreen.bmp	practice3.jpg	blankscreen.bmp	square.bmp
285	practice	practice_bottomleft_diff	12	523	23	mask.bmp	blankscreen.bmp	practice11.jpg	blankscreen.bmp	square.bmp
285	real_a	real_bottomleft_same_a	1	1487	23	mask.bmp	blankscreen.bmp	wfn5.bmp	blankscreen.bmp	square.bmp
285	real_a	real_bottomleft_diff_a	2	907	23	mask.bmp	blankscreen.bmp	wmn2.bmp	blankscreen.bmp	square.bmp
285	real_a	real_bottomright_diff_a	3	1815	18	mask.bmp	blankscreen.bmp	wmd1.bmp	blankscreen.bmp	circle.bmp
285	real_a	real_bottomright_same_a	4	965	18	mask.bmp	blankscreen.bmp	wmn5.bmp	blankscreen.bmp	circle.bmp
285	real_a	real_topright_diff_a	5	512	23	mask.bmp	blankscreen.bmp	wmn1.bmp	blankscreen.bmp	square.bmp
285	real_a	real_topright_same_a	6	821	18	mask.bmp	blankscreen.bmp	wmn4.bmp	blankscreen.bmp	circle.bmp
285	real_a	real_bottomright_diff_a	7	806	23	mask.bmp	blankscreen.bmp	wmn3.bmp	blankscreen.bmp	square.bmp
285	real_a	real_topleft_same_a	8	622	23	mask.bmp	blankscreen.bmp	wfn4.bmp	blankscreen.bmp	circle.bmp
285	real_a	real_bottomleft_diff_a	9	1055	18	mask.bmp	blankscreen.bmp	wfn1.bmp	blankscreen.bmp	circle.bmp
285	real_a	real_bottomleft_same_a	10	1005	23	mask.bmp	blankscreen.bmp	wmd4.bmp	blankscreen.bmp	square.bmp
285	real_a	real_bottomright_same_a	11	1445	18	mask.bmp	blankscreen.bmp	wmd5.bmp	blankscreen.bmp	circle.bmp
285	real_a	real_bottomright_diff_a	12	707	18	mask.bmp	blankscreen.bmp	wfn2.bmp	blankscreen.bmp	circle.bmp
285	real_a	real_topright_diff_a	13	872	18	mask.bmp	blankscreen.bmp	wfd2.bmp	blankscreen.bmp	circle.bmp
285	real_a	real_topleft_same_a	14	1725	18	mask.bmp	blankscreen.bmp	wfd4.bmp	blankscreen.bmp	circle.bmp
285	real_a	real_bottomleft_diff_a	15	711	23	mask.bmp	blankscreen.bmp	wfd3.bmp	blankscreen.bmp	square.bmp
285	real_a	real_topright_same_a	16	843	23	mask.bmp	blankscreen.bmp	wfd5.bmp	blankscreen.bmp	square.bmp
285	real_a	real_topright_diff_a	17	923	18	mask.bmp	blankscreen.bmp	wmd3.bmp	blankscreen.bmp	circle.bmp
285	real_a	real_topleft_diff_a	18	814	23	mask.bmp	blankscreen.bmp	wfd1.bmp	blankscreen.bmp	square.bmp
285	real_a	real_topleft_diff_a	19	823	18	mask.bmp	blankscreen.bmp	wmd2.bmp	blankscreen.bmp	circle.bmp
285	real_a	real_topleft_diff_a	20	1063	18	mask.bmp	blankscreen.bmp	wfn3.bmp	blankscreen.bmp	circle.bmp
285	real_b	real_topright_same_b	1	692	23	mask.bmp	blankscreen.bmp	wfn9.bmp	blankscreen.bmp	square.bmp
285	real_b	real_topright_diff_b	2	777	23	mask.bmp	blankscreen.bmp	wmn7.bmp	blankscreen.bmp	square.bmp
285	real_b	real_bottomleft_diff_b	3	764	23	mask.bmp	blankscreen.bmp	wmn8.bmp	blankscreen.bmp	square.bmp
285	real_b	real_topleft_same_b	4	870	18	mask.bmp	blankscreen.bmp	wmd9.bmp	blankscreen.bmp	circle.bmp
285	real_b	real_bottomleft_same_b	5	709	18	mask.bmp	blankscreen.bmp	wfd9.bmp	blankscreen.bmp	circle.bmp
285	real_b	real_bottomright_diff_b	6	658	18	mask.bmp	blankscreen.bmp	wfn8.bmp	blankscreen.bmp	circle.bmp
285	real_b	real_topleft_same_b	7	857	23	mask.bmp	blankscreen.bmp	wmn9.bmp	blankscreen.bmp	square.bmp
285	real_b	real_bottomleft_same_b	8	703	18	mask.bmp	blankscreen.bmp	wmd10.bmp	blankscreen.bmp	circle.bmp
285	real_b	real_bottomright_same_b	9	701	23	mask.bmp	blankscreen.bmp	wfn10.bmp	blankscreen.bmp	circle.bmp
285	real_b	real_topright_diff_b	10	1323	18	mask.bmp	blankscreen.bmp	wfn6.bmp	blankscreen.bmp	circle.bmp
285	real_b	real_bottomright_diff_b	11	894	23	mask.bmp	blankscreen.bmp	wfd6.bmp	blankscreen.bmp	square.bmp
285	real_b	real_topleft_diff_b	12	771	23	mask.bmp	blankscreen.bmp	wmn6.bmp	blankscreen.bmp	square.bmp
285	real_b	real_bottomleft_diff_b	13	853	23	mask.bmp	blankscreen.bmp	wmd6.bmp	blankscreen.bmp	square.bmp
285	real_b	real_bottomleft_diff_b	14	660	23	mask.bmp	blankscreen.bmp	wfn7.bmp	blankscreen.bmp	square.bmp
285	real_b	real_topleft_diff_b	15	579	23	mask.bmp	blankscreen.bmp	wfd7.bmp	blankscreen.bmp	square.bmp
285	real_b	real_topright_same_b	16	598	18	mask.bmp	blankscreen.bmp	wmn10.bmp	blankscreen.bmp	circle.bmp
285	real_b	real_topright_diff_b	17	520	18	mask.bmp	blankscreen.bmp	wfd8.bmp	blankscreen.bmp	circle.bmp
285	real_b	real_bottomright_diff_b	18	669	23	mask.bmp	blankscreen.bmp	wmd7.bmp	blankscreen.bmp	square.bmp
285	real_b	real_bottomright_same_b	19	660	18	mask.bmp	blankscreen.bmp	wfd10.bmp	blankscreen.bmp	circle.bmp
285	real_b	real_topleft_diff_b	20	659	18	mask.bmp	blankscreen.bmp	wmd8.bmp	blankscreen.bmp	circle.bmp
285	real_c	real_topright_same_c	1	969	18	mask.bmp	blankscreen.bmp	wfn2.bmp	blankscreen.bmp	circle.bmp
285	real_c	real_bottomleft_diff_c	2	691	18	mask.bmp	blankscreen.bmp	wfn3.bmp	blankscreen.bmp	circle.bmp
285	real_c	real_topleft_diff_c	3	601	23	mask.bmp	blankscreen.bmp	wfn4.bmp	blankscreen.bmp	square.bmp
285	real_c	real_topright_diff_c	4	747	23	mask.bmp	blankscreen.bmp	wmd4.bmp	blankscreen.bmp	square.bmp
285	real_c	real_bottomleft_same_c	5	719	18	mask.bmp	blankscreen.bmp	wfd2.bmp	blankscreen.bmp	circle.bmp
285	real_c	real_bottomright_diff_c	6	827	18	mask.bmp	blankscreen.bmp	wmn4.bmp	blankscreen.bmp	circle.bmp
285	real_c	real_topleft_same_c	7	659	23	mask.bmp	blankscreen.bmp	wfn1.bmp	blankscreen.bmp	square.bmp
285	real_c	real_topright_diff_c	8	690	18	mask.bmp	blankscreen.bmp	wmn3.bmp	blankscreen.bmp	circle.bmp
285	real_c	real_bottomleft_same_c	9	688	18	mask.bmp	blankscreen.bmp	wmn1.bmp	blankscreen.bmp	circle.bmp
285	real_c	real_bottomleft_diff_c	10	590	18	mask.bmp	blankscreen.bmp	wmd5.bmp	blankscreen.bmp	circle.bmp
285	real_c	real_bottomright_same_c	11	640	23	mask.bmp	blankscreen.bmp	wmd2.bmp	blankscreen.bmp	square.bmp
285	real_c	real_topleft_diff_c	12	728	23	mask.bmp	blankscreen.bmp	wfd3.bmp	blankscreen.bmp	square.bmp
285	real_c	real_topleft_diff_c	13	644	23	mask.bmp	blankscreen.bmp	wmn5.bmp	blankscreen.bmp	square.bmp
285	real_c	real_bottomleft_diff_c	14	500	23	mask.bmp	blankscreen.bmp	wfd4.bmp	blankscreen.bmp	square.bmp
285	real_c	real_bottomright_same_c	15	570	18	mask.bmp	blankscreen.bmp	wmn2.bmp	blankscreen.bmp	circle.bmp
285	real_c	real_bottomright_diff_c	16	541	23	mask.bmp	blankscreen.bmp	wmd3.bmp	blankscreen.bmp	circle.bmp
285	real_c	real_topleft_same_c	17	689	23	mask.bmp	blankscreen.bmp	wfd1.bmp	blankscreen.bmp	circle.bmp
285	real_c	real_topright_diff_c	18	623	18	mask.bmp	blankscreen.bmp	wfn5.bmp	blankscreen.bmp	circle.bmp
285	real_c	real_topright_same_c	19	800	23	mask.bmp	blankscreen.bmp	wmd1.bmp	blankscreen.bmp	square.bmp
285	real_c	real_bottomright_diff_c	20	785	23	mask.bmp	blankscreen.bmp	wfd5.bmp	blankscreen.bmp	square.bmp
285	real_d	real_topleft_same_d	1	777	23	mask.bmp	blankscreen.bmp	wmn6.bmp	blankscreen.bmp	square.bmp
285	real_d	real_bottomleft_diff_d	2	643	18	mask.bmp	blankscreen.bmp	wmn9.bmp	blankscreen.bmp	circle.bmp
285	real_d	real_topright_diff_d	3	627	18	mask.bmp	blankscreen.bmp	wfd9.bmp	blankscreen.bmp	circle.bmp
285	real_d	real_topleft_same_d	4	579	18	mask.bmp	blankscreen.bmp	wmd6.bmp	blankscreen.bmp	circle.bmp
285	real_d	real_bottomright_same_d	5	678	18	mask.bmp	blankscreen.bmp	wfd7.bmp	blankscreen.bmp	circle.bmp
285	real_d	real_bottomright_same_d	6	732	23	mask.bmp	blankscreen.bmp	wfn7.bmp	blankscreen.bmp	square.bmp
285	real_d	real_topleft_diff_d	7	576	23	mask.bmp	blankscreen.bmp	wmd9.bmp	blankscreen.bmp	square.bmp
285	real_d	real_bottomleft_same_d	8	603	23	mask.bmp	blankscreen.bmp	wfn6.bmp	blankscreen.bmp	square.bmp
285	real_d	real_topright_same_d	9	749	18	mask.bmp	blankscreen.bmp	wfd6.bmp	blankscreen.bmp	circle.bmp
285	real_d	real_topright_diff_d	10	617	23	mask.bmp	blankscreen.bmp	wfn8.bmp	blankscreen.bmp	square.bmp
285	real_d	real_bottomright_diff_d	11	570	18	mask.bmp	blankscreen.bmp	wmn10.bmp	blankscreen.bmp	circle.bmp
285	real_d	real_topright_diff_d	12	637	23	mask.bmp	blankscreen.bmp	wmd10.bmp	blankscreen.bmp	square.bmp
285	real_d	real_bottomleft_same_d	13	757	18	mask.bmp	blankscreen.bmp	wmn7.bmp	blankscreen.bmp	circle.bmp
285	real_d	real_bottomleft_diff_d	14	640	18	mask.bmp	blankscreen.bmp	wmd8.bmp	blankscreen.bmp	circle.bmp
285	real_d	real_topleft_diff_d	15	1184	23	mask.bmp	blankscreen.bmp	wfn10.bmp	blankscreen.bmp	square.bmp
285	real_d	real_topright_same_d	16	921	23	mask.bmp	blankscreen.bmp	wmd7.bmp	blankscreen.bmp	square.bmp
285	real_d	real_topleft_diff_d	17	621	18	mask.bmp	blankscreen.bmp	wmn8.bmp	blankscreen.bmp	circle.bmp
285	real_d	real_bottomright_diff_d	18	774	18	mask.bmp	blankscreen.bmp	wfd8.bmp	blankscreen.bmp	circle.bmp
285	real_d	real_bottomright_diff_d	19	720	18	mask.bmp	blankscreen.bmp	wfn9.bmp	blankscreen.bmp	circle.bmp
285	real_d	real_bottomleft_diff_d	20	572	18	mask.bmp	blankscreen.bmp	wfd10.bmp	blankscreen.bmp	circle.bmp
286	practice	practice_bottomright_diff	1	3634	18	mask.bmp	blankscreen.bmp	practice12.jpg	blankscreen.bmp	circle.bmp
286	practice	practice_topleft_same	2	1649	23	mask.bmp	blankscreen.bmp	practice1.jpg	blankscreen.bmp	square.bmp
286	practice	practice_topleft_same	3	958	23	mask.bmp	blankscreen.bmp	practice2.jpg	blankscreen.bmp	square.bmp
286	practice	practice_topleft_diff	4	808	23	mask.bmp	blankscreen.bmp	practice9.jpg	blankscreen.bmp	square.bmp
286	practice	practice_topright_diff	5	761	23	mask.bmp	blankscreen.bmp	practice10.jpg	blankscreen.bmp	square.bmp
286	practice	practice_bottomleft_diff	6	780	23	mask.bmp	blankscreen.bmp	practice11.jpg	blankscreen.bmp	square.bmp
286	practice	practice_bottomright_same	7	670	18	mask.bmp	blankscreen.bmp	practice8.jpg	blankscreen.bmp	circle.bmp
286	practice	practice_bottomleft_same	8	700	23	mask.bmp	blankscreen.bmp	practice6.jpg	blankscreen.bmp	square.bmp
286	practice	practice_topright_same	9	890	18	mask.bmp	blankscreen.bmp	practice3.jpg	blankscreen.bmp	circle.bmp
286	practice	practice_bottomright_same	10	1223	23	mask.bmp	blankscreen.bmp	practice7.jpg	blankscreen.bmp	square.bmp
286	practice	practice_bottomleft_same	11	518	18	mask.bmp	blankscreen.bmp	practice5.jpg	blankscreen.bmp	circle.bmp
286	practice	practice_topright_same	12	380	23	mask.bmp	blankscreen.bmp	practice4.jpg	blankscreen.bmp	square.bmp
286	real_a	real_topleft_diff_a	1	1490	23	mask.bmp	blankscreen.bmp	wfd1.bmp	blankscreen.bmp	square.bmp
286	real_a	real_topright_same_a	2	765	23	mask.bmp	blankscreen.bmp	wfd5.bmp	blankscreen.bmp	square.bmp
286	real_a	real_bottomleft_same_a	3	864	23	mask.bmp	blankscreen.bmp	wfn5.bmp	blankscreen.bmp	square.bmp
286	real_a	real_bottomright_diff_a	4	694	18	mask.bmp	blankscreen.bmp	wmn3.bmp	blankscreen.bmp	square.bmp
286	real_a	real_bottomright_diff_a	5	636	18	mask.bmp	blankscreen.bmp	wfn2.bmp	blankscreen.bmp	circle.bmp
286	real_a	real_topleft_diff_a	6	1388	23	mask.bmp	blankscreen.bmp	wfn3.bmp	blankscreen.bmp	square.bmp
286	real_a	real_topright_diff_a	7	844	23	mask.bmp	blankscreen.bmp	wfd2.bmp	blankscreen.bmp	square.bmp
286	real_a	real_topright_same_a	8	755	18	mask.bmp	blankscreen.bmp	wmn4.bmp	blankscreen.bmp	circle.bmp
286	real_a	real_topleft_same_a	9	790	23	mask.bmp	blankscreen.bmp	wfn4.bmp	blankscreen.bmp	circle.bmp
286	real_a	real_bottomright_same_a	10	783	23	mask.bmp	blankscreen.bmp	wmn5.bmp	blankscreen.bmp	circle.bmp
286	real_a	real_topright_diff_a	11	1441	23	mask.bmp	blankscreen.bmp	wmd3.bmp	blankscreen.bmp	square.bmp
286	real_a	real_bottomright_diff_a	12	1335	18	mask.bmp	blankscreen.bmp	wmd1.bmp	blankscreen.bmp	circle.bmp
286	real_a	real_bottomleft_diff_a	13	1041	23	mask.bmp	blankscreen.bmp	wfn1.bmp	blankscreen.bmp	square.bmp
286	real_a	real_bottomright_same_a	14	1184	18	mask.bmp	blankscreen.bmp	wmd5.bmp	blankscreen.bmp	circle.bmp
286	real_a	real_topleft_same_a	15	1336	23	mask.bmp	blankscreen.bmp	wfd4.bmp	blankscreen.bmp	square.bmp
286	real_a	real_topright_diff_a	16	1739	23	mask.bmp	blankscreen.bmp	wmn1.bmp	blankscreen.bmp	square.bmp
286	real_a	real_bottomleft_diff_a	17	700	18	mask.bmp	blankscreen.bmp	wmn2.bmp	blankscreen.bmp	circle.bmp
286	real_a	real_bottomleft_diff_a	18	778	23	mask.bmp	blankscreen.bmp	wfd3.bmp	blankscreen.bmp	square.bmp
286	real_a	real_topleft_diff_a	19	1436	18	mask.bmp	blankscreen.bmp	wmd2.bmp	blankscreen.bmp	square.bmp
286	real_a	real_bottomleft_same_a	20	1042	18	mask.bmp	blankscreen.bmp	wmd4.bmp	blankscreen.bmp	circle.bmp
286	real_b	real_bottomright_diff_b	1	699	18	mask.bmp	blankscreen.bmp	wmd7.bmp	blankscreen.bmp	circle.bmp
286	real_b	real_topright_same_b	2	945	18	mask.bmp	blankscreen.bmp	wfn9.bmp	blankscreen.bmp	circle.bmp
286	real_b	real_topright_diff_b	3	756	23	mask.bmp	blankscreen.bmp	wmn7.bmp	blankscreen.bmp	square.bmp
286	real_b	real_topleft_same_b	4	807	18	mask.bmp	blankscreen.bmp	wmd9.bmp	blankscreen.bmp	circle.bmp
286	real_b	real_topright_diff_b	5	808	18	mask.bmp	blankscreen.bmp	wfn6.bmp	blankscreen.bmp	circle.bmp
286	real_b	real_bottomleft_same_b	6	912	23	mask.bmp	blankscreen.bmp	wfd9.bmp	blankscreen.bmp	square.bmp
286	real_b	real_bottomleft_diff_b	7	973	18	mask.bmp	blankscreen.bmp	wmd6.bmp	blankscreen.bmp	square.bmp
286	real_b	real_topleft_diff_b	8	1166	23	mask.bmp	blankscreen.bmp	wmd8.bmp	blankscreen.bmp	square.bmp
286	real_b	real_bottomright_same_b	9	872	23	mask.bmp	blankscreen.bmp	wfn10.bmp	blankscreen.bmp	square.bmp
286	real_b	real_bottomright_diff_b	10	765	18	mask.bmp	blankscreen.bmp	wfn8.bmp	blankscreen.bmp	circle.bmp
286	real_b	real_bottomright_diff_b	11	976	23	mask.bmp	blankscreen.bmp	wfd6.bmp	blankscreen.bmp	square.bmp
286	real_b	real_topright_diff_b	12	1010	23	mask.bmp	blankscreen.bmp	wfd8.bmp	blankscreen.bmp	square.bmp
286	real_b	real_bottomleft_same_b	13	907	23	mask.bmp	blankscreen.bmp	wmd10.bmp	blankscreen.bmp	square.bmp
286	real_b	real_topright_same_b	14	774	23	mask.bmp	blankscreen.bmp	wmn10.bmp	blankscreen.bmp	square.bmp
286	real_b	real_bottomleft_diff_b	15	752	18	mask.bmp	blankscreen.bmp	wmn8.bmp	blankscreen.bmp	circle.bmp
286	real_b	real_topleft_diff_b	16	771	23	mask.bmp	blankscreen.bmp	wmn6.bmp	blankscreen.bmp	square.bmp
286	real_b	real_bottomright_same_b	17	726	23	mask.bmp	blankscreen.bmp	wfd10.bmp	blankscreen.bmp	square.bmp
286	real_b	real_bottomleft_diff_b	18	795	23	mask.bmp	blankscreen.bmp	wfn7.bmp	blankscreen.bmp	square.bmp
286	real_b	real_topleft_same_b	19	803	18	mask.bmp	blankscreen.bmp	wmn9.bmp	blankscreen.bmp	circle.bmp
286	real_b	real_topleft_diff_b	20	724	23	mask.bmp	blankscreen.bmp	wfd7.bmp	blankscreen.bmp	square.bmp
286	real_c	real_topright_same_c	1	824	18	mask.bmp	blankscreen.bmp	wmd1.bmp	blankscreen.bmp	circle.bmp
286	real_c	real_topleft_diff_c	2	720	23	mask.bmp	blankscreen.bmp	wfn4.bmp	blankscreen.bmp	square.bmp
286	real_c	real_bottomleft_same_c	3	829	23	mask.bmp	blankscreen.bmp	wmn1.bmp	blankscreen.bmp	square.bmp
286	real_c	real_bottomleft_same_c	4	620	18	mask.bmp	blankscreen.bmp	wfd2.bmp	blankscreen.bmp	circle.bmp
286	real_c	real_bottomright_diff_c	5	741	23	mask.bmp	blankscreen.bmp	wmd3.bmp	blankscreen.bmp	square.bmp
286	real_c	real_bottomleft_diff_c	6	1033	18	mask.bmp	blankscreen.bmp	wmd5.bmp	blankscreen.bmp	circle.bmp
286	real_c	real_topleft_same_c	7	1184	18	mask.bmp	blankscreen.bmp	wfd1.bmp	blankscreen.bmp	circle.bmp
286	real_c	real_bottomright_same_c	8	641	23	mask.bmp	blankscreen.bmp	wmn2.bmp	blankscreen.bmp	square.bmp
286	real_c	real_topright_diff_c	9	1136	18	mask.bmp	blankscreen.bmp	wmn3.bmp	blankscreen.bmp	circle.bmp
286	real_c	real_topleft_diff_c	10	867	23	mask.bmp	blankscreen.bmp	wfd3.bmp	blankscreen.bmp	square.bmp
286	real_c	real_bottomright_diff_c	11	730	23	mask.bmp	blankscreen.bmp	wmn4.bmp	blankscreen.bmp	square.bmp
286	real_c	real_topright_same_c	12	942	18	mask.bmp	blankscreen.bmp	wfn2.bmp	blankscreen.bmp	circle.bmp
286	real_c	real_bottomright_same_c	13	937	23	mask.bmp	blankscreen.bmp	wmd2.bmp	blankscreen.bmp	circle.bmp
286	real_c	real_topleft_same_c	14	1093	23	mask.bmp	blankscreen.bmp	wfn1.bmp	blankscreen.bmp	square.bmp
286	real_c	real_bottomleft_diff_c	15	1289	18	mask.bmp	blankscreen.bmp	wfn3.bmp	blankscreen.bmp	circle.bmp
286	real_c	real_bottomright_diff_c	16	1117	18	mask.bmp	blankscreen.bmp	wfd5.bmp	blankscreen.bmp	circle.bmp
286	real_c	real_topright_diff_c	17	913	23	mask.bmp	blankscreen.bmp	wmd4.bmp	blankscreen.bmp	square.bmp
286	real_c	real_topleft_diff_c	18	861	23	mask.bmp	blankscreen.bmp	wmn5.bmp	blankscreen.bmp	square.bmp
286	real_c	real_topright_diff_c	19	1100	23	mask.bmp	blankscreen.bmp	wfn5.bmp	blankscreen.bmp	square.bmp
286	real_c	real_bottomleft_diff_c	20	1016	23	mask.bmp	blankscreen.bmp	wfd4.bmp	blankscreen.bmp	square.bmp
286	real_d	real_topright_same_d	1	1042	18	mask.bmp	blankscreen.bmp	wmd7.bmp	blankscreen.bmp	circle.bmp
286	real_d	real_topleft_same_d	2	824	23	mask.bmp	blankscreen.bmp	wmn6.bmp	blankscreen.bmp	square.bmp
286	real_d	real_topleft_diff_d	3	944	18	mask.bmp	blankscreen.bmp	wfn10.bmp	blankscreen.bmp	circle.bmp
286	real_d	real_topright_diff_d	4	747	18	mask.bmp	blankscreen.bmp	wmd10.bmp	blankscreen.bmp	circle.bmp
286	real_d	real_topleft_diff_d	5	1919	18	mask.bmp	blankscreen.bmp	wmn8.bmp	blankscreen.bmp	circle.bmp
286	real_d	real_topleft_diff_d	6	904	23	mask.bmp	blankscreen.bmp	wmd9.bmp	blankscreen.bmp	square.bmp
286	real_d	real_topright_diff_d	7	1701	18	mask.bmp	blankscreen.bmp	wfd9.bmp	blankscreen.bmp	circle.bmp
286	real_d	real_bottomleft_diff_d	8	856	23	mask.bmp	blankscreen.bmp	wmd8.bmp	blankscreen.bmp	square.bmp
286	real_d	real_bottomright_diff_d	9	982	18	mask.bmp	blankscreen.bmp	wmn10.bmp	blankscreen.bmp	circle.bmp
286	real_d	real_topright_diff_d	10	720	23	mask.bmp	blankscreen.bmp	wfn8.bmp	blankscreen.bmp	square.bmp
286	real_d	real_bottomleft_same_d	11	789	23	mask.bmp	blankscreen.bmp	wfn6.bmp	blankscreen.bmp	square.bmp
286	real_d	real_bottomleft_same_d	12	774	18	mask.bmp	blankscreen.bmp	wmn7.bmp	blankscreen.bmp	circle.bmp
286	real_d	real_bottomright_diff_d	13	776	23	mask.bmp	blankscreen.bmp	wfn9.bmp	blankscreen.bmp	square.bmp
286	real_d	real_bottomright_diff_d	14	1042	23	mask.bmp	blankscreen.bmp	wfd8.bmp	blankscreen.bmp	square.bmp
286	real_d	real_bottomright_same_d	15	1729	23	mask.bmp	blankscreen.bmp	wfn7.bmp	blankscreen.bmp	square.bmp
286	real_d	real_bottomleft_diff_d	16	922	23	mask.bmp	blankscreen.bmp	wmn9.bmp	blankscreen.bmp	circle.bmp
286	real_d	real_topright_same_d	17	1141	18	mask.bmp	blankscreen.bmp	wfd6.bmp	blankscreen.bmp	circle.bmp
286	real_d	real_bottomright_same_d	18	952	18	mask.bmp	blankscreen.bmp	wfd7.bmp	blankscreen.bmp	circle.bmp
286	real_d	real_topleft_same_d	19	971	18	mask.bmp	blankscreen.bmp	wmd6.bmp	blankscreen.bmp	circle.bmp
286	real_d	real_bottomleft_diff_d	20	893	23	mask.bmp	blankscreen.bmp	wfd10.bmp	blankscreen.bmp	square.bmp
287	practice	practice_bottomright_same	1	535	18	mask.bmp	blankscreen.bmp	practice8.jpg	blankscreen.bmp	circle.bmp
287	practice	practice_bottomright_diff	2	491	18	mask.bmp	blankscreen.bmp	practice12.jpg	blankscreen.bmp	circle.bmp
287	practice	practice_bottomleft_same	3	482	18	mask.bmp	blankscreen.bmp	practice5.jpg	blankscreen.bmp	circle.bmp
287	practice	practice_topright_same	4	489	18	mask.bmp	blankscreen.bmp	practice4.jpg	blankscreen.bmp	circle.bmp
287	practice	practice_topleft_same	5	423	18	mask.bmp	blankscreen.bmp	practice2.jpg	blankscreen.bmp	circle.bmp
287	practice	practice_bottomright_same	6	408	23	mask.bmp	blankscreen.bmp	practice7.jpg	blankscreen.bmp	square.bmp
287	practice	practice_topright_same	7	394	18	mask.bmp	blankscreen.bmp	practice3.jpg	blankscreen.bmp	circle.bmp
287	practice	practice_bottomleft_diff	8	405	18	mask.bmp	blankscreen.bmp	practice11.jpg	blankscreen.bmp	circle.bmp
287	practice	practice_topleft_diff	9	454	18	mask.bmp	blankscreen.bmp	practice9.jpg	blankscreen.bmp	square.bmp
287	practice	practice_bottomleft_same	10	486	18	mask.bmp	blankscreen.bmp	practice6.jpg	blankscreen.bmp	circle.bmp
287	practice	practice_topright_diff	11	422	18	mask.bmp	blankscreen.bmp	practice10.jpg	blankscreen.bmp	square.bmp
287	practice	practice_topleft_same	12	422	23	mask.bmp	blankscreen.bmp	practice1.jpg	blankscreen.bmp	square.bmp
287	real_a	real_bottomright_diff_a	1	460	18	mask.bmp	blankscreen.bmp	wmd1.bmp	blankscreen.bmp	circle.bmp
287	real_a	real_bottomleft_same_a	2	452	18	mask.bmp	blankscreen.bmp	wmd4.bmp	blankscreen.bmp	circle.bmp
287	real_a	real_topleft_diff_a	3	484	23	mask.bmp	blankscreen.bmp	wfn3.bmp	blankscreen.bmp	square.bmp
287	real_a	real_topleft_diff_a	4	475	18	mask.bmp	blankscreen.bmp	wmd2.bmp	blankscreen.bmp	circle.bmp
287	real_a	real_bottomleft_diff_a	5	386	23	mask.bmp	blankscreen.bmp	wfn1.bmp	blankscreen.bmp	circle.bmp
287	real_a	real_bottomleft_diff_a	6	445	23	mask.bmp	blankscreen.bmp	wfd3.bmp	blankscreen.bmp	square.bmp
287	real_a	real_topright_same_a	7	470	23	mask.bmp	blankscreen.bmp	wmn4.bmp	blankscreen.bmp	square.bmp
287	real_a	real_topright_diff_a	8	501	23	mask.bmp	blankscreen.bmp	wfd2.bmp	blankscreen.bmp	square.bmp
287	real_a	real_bottomright_diff_a	9	659	23	mask.bmp	blankscreen.bmp	wfn2.bmp	blankscreen.bmp	circle.bmp
287	real_a	real_topright_diff_a	10	378	23	mask.bmp	blankscreen.bmp	wmd3.bmp	blankscreen.bmp	square.bmp
287	real_a	real_topright_diff_a	11	357	18	mask.bmp	blankscreen.bmp	wmn1.bmp	blankscreen.bmp	circle.bmp
287	real_a	real_topleft_diff_a	12	401	18	mask.bmp	blankscreen.bmp	wfd1.bmp	blankscreen.bmp	circle.bmp
287	real_a	real_bottomright_same_a	13	572	23	mask.bmp	blankscreen.bmp	wmn5.bmp	blankscreen.bmp	circle.bmp
287	real_a	real_bottomright_diff_a	14	487	23	mask.bmp	blankscreen.bmp	wmn3.bmp	blankscreen.bmp	square.bmp
287	real_a	real_topright_same_a	15	597	18	mask.bmp	blankscreen.bmp	wfd5.bmp	blankscreen.bmp	square.bmp
287	real_a	real_topleft_same_a	16	591	18	mask.bmp	blankscreen.bmp	wfd4.bmp	blankscreen.bmp	circle.bmp
287	real_a	real_topleft_same_a	17	529	23	mask.bmp	blankscreen.bmp	wfn4.bmp	blankscreen.bmp	square.bmp
287	real_a	real_bottomright_same_a	18	742	18	mask.bmp	blankscreen.bmp	wmd5.bmp	blankscreen.bmp	circle.bmp
287	real_a	real_bottomleft_same_a	19	553	23	mask.bmp	blankscreen.bmp	wfn5.bmp	blankscreen.bmp	square.bmp
287	real_a	real_bottomleft_diff_a	20	572	18	mask.bmp	blankscreen.bmp	wmn2.bmp	blankscreen.bmp	circle.bmp
287	real_b	real_topleft_diff_b	1	364	18	mask.bmp	blankscreen.bmp	wmn6.bmp	blankscreen.bmp	circle.bmp
287	real_b	real_bottomright_same_b	2	360	23	mask.bmp	blankscreen.bmp	wfd10.bmp	blankscreen.bmp	square.bmp
287	real_b	real_topleft_same_b	3	404	18	mask.bmp	blankscreen.bmp	wmn9.bmp	blankscreen.bmp	circle.bmp
287	real_b	real_topleft_same_b	4	574	23	mask.bmp	blankscreen.bmp	wmd9.bmp	blankscreen.bmp	square.bmp
287	real_b	real_bottomleft_diff_b	5	521	18	mask.bmp	blankscreen.bmp	wmd6.bmp	blankscreen.bmp	circle.bmp
287	real_b	real_bottomleft_same_b	6	477	18	mask.bmp	blankscreen.bmp	wmd10.bmp	blankscreen.bmp	circle.bmp
287	real_b	real_bottomright_same_b	7	565	18	mask.bmp	blankscreen.bmp	wfn10.bmp	blankscreen.bmp	circle.bmp
287	real_b	real_topright_diff_b	8	440	18	mask.bmp	blankscreen.bmp	wfn6.bmp	blankscreen.bmp	circle.bmp
287	real_b	real_bottomleft_diff_b	9	448	23	mask.bmp	blankscreen.bmp	wfn7.bmp	blankscreen.bmp	square.bmp
287	real_b	real_bottomright_diff_b	10	345	23	mask.bmp	blankscreen.bmp	wfn8.bmp	blankscreen.bmp	square.bmp
287	real_b	real_topright_diff_b	11	373	18	mask.bmp	blankscreen.bmp	wmn7.bmp	blankscreen.bmp	circle.bmp
287	real_b	real_topleft_diff_b	12	497	23	mask.bmp	blankscreen.bmp	wfd7.bmp	blankscreen.bmp	square.bmp
287	real_b	real_bottomleft_diff_b	13	287	23	mask.bmp	blankscreen.bmp	wmn8.bmp	blankscreen.bmp	square.bmp
287	real_b	real_bottomright_diff_b	14	382	18	mask.bmp	blankscreen.bmp	wmd7.bmp	blankscreen.bmp	circle.bmp
287	real_b	real_bottomleft_same_b	15	361	23	mask.bmp	blankscreen.bmp	wfd9.bmp	blankscreen.bmp	square.bmp
287	real_b	real_bottomright_diff_b	16	437	23	mask.bmp	blankscreen.bmp	wfd6.bmp	blankscreen.bmp	square.bmp
287	real_b	real_topright_same_b	17	429	18	mask.bmp	blankscreen.bmp	wmn10.bmp	blankscreen.bmp	circle.bmp
287	real_b	real_topright_same_b	18	303	23	mask.bmp	blankscreen.bmp	wfn9.bmp	blankscreen.bmp	square.bmp
287	real_b	real_topright_diff_b	19	405	18	mask.bmp	blankscreen.bmp	wfd8.bmp	blankscreen.bmp	circle.bmp
287	real_b	real_topleft_diff_b	20	479	18	mask.bmp	blankscreen.bmp	wmd8.bmp	blankscreen.bmp	circle.bmp
287	real_c	real_topright_same_c	1	484	18	mask.bmp	blankscreen.bmp	wmd1.bmp	blankscreen.bmp	circle.bmp
287	real_c	real_bottomleft_diff_c	2	387	23	mask.bmp	blankscreen.bmp	wmd5.bmp	blankscreen.bmp	square.bmp
287	real_c	real_bottomleft_same_c	3	541	23	mask.bmp	blankscreen.bmp	wmn1.bmp	blankscreen.bmp	square.bmp
287	real_c	real_bottomleft_diff_c	4	409	23	mask.bmp	blankscreen.bmp	wfd4.bmp	blankscreen.bmp	square.bmp
287	real_c	real_bottomright_diff_c	5	323	18	mask.bmp	blankscreen.bmp	wfd5.bmp	blankscreen.bmp	circle.bmp
287	real_c	real_topright_diff_c	6	465	18	mask.bmp	blankscreen.bmp	wfn5.bmp	blankscreen.bmp	circle.bmp
287	real_c	real_topright_same_c	7	400	23	mask.bmp	blankscreen.bmp	wfn2.bmp	blankscreen.bmp	square.bmp
287	real_c	real_topleft_diff_c	8	355	18	mask.bmp	blankscreen.bmp	wfd3.bmp	blankscreen.bmp	circle.bmp
287	real_c	real_topleft_same_c	9	463	18	mask.bmp	blankscreen.bmp	wfd1.bmp	blankscreen.bmp	circle.bmp
287	real_c	real_bottomleft_diff_c	10	359	18	mask.bmp	blankscreen.bmp	wfn3.bmp	blankscreen.bmp	circle.bmp
287	real_c	real_topright_diff_c	11	299	18	mask.bmp	blankscreen.bmp	wmd4.bmp	blankscreen.bmp	square.bmp
287	real_c	real_bottomleft_same_c	12	545	23	mask.bmp	blankscreen.bmp	wfd2.bmp	blankscreen.bmp	square.bmp
287	real_c	real_topright_diff_c	13	453	18	mask.bmp	blankscreen.bmp	wmn3.bmp	blankscreen.bmp	circle.bmp
287	real_c	real_topleft_diff_c	14	429	23	mask.bmp	blankscreen.bmp	wmn5.bmp	blankscreen.bmp	circle.bmp
287	real_c	real_topleft_diff_c	15	599	23	mask.bmp	blankscreen.bmp	wfn4.bmp	blankscreen.bmp	square.bmp
287	real_c	real_bottomright_same_c	16	344	18	mask.bmp	blankscreen.bmp	wmd2.bmp	blankscreen.bmp	circle.bmp
287	real_c	real_bottomright_same_c	17	581	23	mask.bmp	blankscreen.bmp	wmn2.bmp	blankscreen.bmp	square.bmp
287	real_c	real_topleft_same_c	18	480	18	mask.bmp	blankscreen.bmp	wfn1.bmp	blankscreen.bmp	circle.bmp
287	real_c	real_bottomright_diff_c	19	479	18	mask.bmp	blankscreen.bmp	wmn4.bmp	blankscreen.bmp	circle.bmp
287	real_c	real_bottomright_diff_c	20	342	23	mask.bmp	blankscreen.bmp	wmd3.bmp	blankscreen.bmp	square.bmp
287	real_d	real_topright_diff_d	1	328	18	mask.bmp	blankscreen.bmp	wfd9.bmp	blankscreen.bmp	circle.bmp
287	real_d	real_bottomright_same_d	2	334	23	mask.bmp	blankscreen.bmp	wfd7.bmp	blankscreen.bmp	square.bmp
287	real_d	real_topleft_diff_d	3	475	18	mask.bmp	blankscreen.bmp	wmn8.bmp	blankscreen.bmp	circle.bmp
287	real_d	real_bottomright_diff_d	4	338	18	mask.bmp	blankscreen.bmp	wfn9.bmp	blankscreen.bmp	circle.bmp
287	real_d	real_topleft_diff_d	5	487	23	mask.bmp	blankscreen.bmp	wfn10.bmp	blankscreen.bmp	square.bmp
287	real_d	real_topright_same_d	6	445	18	mask.bmp	blankscreen.bmp	wmd7.bmp	blankscreen.bmp	circle.bmp
287	real_d	real_bottomleft_same_d	7	598	18	mask.bmp	blankscreen.bmp	wmn7.bmp	blankscreen.bmp	circle.bmp
287	real_d	real_bottomleft_diff_d	8	408	23	mask.bmp	blankscreen.bmp	wfd10.bmp	blankscreen.bmp	square.bmp
287	real_d	real_topright_diff_d	9	489	18	mask.bmp	blankscreen.bmp	wfn8.bmp	blankscreen.bmp	circle.bmp
287	real_d	real_bottomright_diff_d	10	360	23	mask.bmp	blankscreen.bmp	wmn10.bmp	blankscreen.bmp	square.bmp
287	real_d	real_bottomleft_diff_d	11	524	18	mask.bmp	blankscreen.bmp	wmd8.bmp	blankscreen.bmp	circle.bmp
287	real_d	real_bottomright_diff_d	12	576	23	mask.bmp	blankscreen.bmp	wfd8.bmp	blankscreen.bmp	circle.bmp
287	real_d	real_topleft_same_d	13	395	18	mask.bmp	blankscreen.bmp	wmd6.bmp	blankscreen.bmp	circle.bmp
287	real_d	real_topleft_diff_d	14	446	18	mask.bmp	blankscreen.bmp	wmd9.bmp	blankscreen.bmp	circle.bmp
287	real_d	real_bottomright_same_d	15	294	23	mask.bmp	blankscreen.bmp	wfn7.bmp	blankscreen.bmp	square.bmp
287	real_d	real_bottomleft_diff_d	16	485	18	mask.bmp	blankscreen.bmp	wmn9.bmp	blankscreen.bmp	circle.bmp
287	real_d	real_topright_same_d	17	572	18	mask.bmp	blankscreen.bmp	wfd6.bmp	blankscreen.bmp	circle.bmp
287	real_d	real_topright_diff_d	18	383	23	mask.bmp	blankscreen.bmp	wmd10.bmp	blankscreen.bmp	square.bmp
287	real_d	real_topleft_same_d	19	250	18	mask.bmp	blankscreen.bmp	wmn6.bmp	blankscreen.bmp	circle.bmp
287	real_d	real_bottomleft_same_d	20	348	23	mask.bmp	blankscreen.bmp	wfn6.bmp	blankscreen.bmp	square.bmp
289	practice	practice_topleft_diff	1	1344	23	mask.bmp	blankscreen.bmp	practice9.jpg	blankscreen.bmp	square.bmp
289	practice	practice_bottomleft_diff	2	690	23	mask.bmp	blankscreen.bmp	practice11.jpg	blankscreen.bmp	square.bmp
289	practice	practice_topright_same	3	1080	23	mask.bmp	blankscreen.bmp	practice4.jpg	blankscreen.bmp	square.bmp
289	practice	practice_bottomleft_same	4	925	23	mask.bmp	blankscreen.bmp	practice5.jpg	blankscreen.bmp	square.bmp
289	practice	practice_topright_same	5	1112	23	mask.bmp	blankscreen.bmp	practice3.jpg	blankscreen.bmp	square.bmp
289	practice	practice_bottomright_same	6	1084	18	mask.bmp	blankscreen.bmp	practice8.jpg	blankscreen.bmp	circle.bmp
289	practice	practice_topleft_same	7	1065	23	mask.bmp	blankscreen.bmp	practice1.jpg	blankscreen.bmp	square.bmp
289	practice	practice_topright_diff	8	727	18	mask.bmp	blankscreen.bmp	practice10.jpg	blankscreen.bmp	circle.bmp
289	practice	practice_topleft_same	9	868	23	mask.bmp	blankscreen.bmp	practice2.jpg	blankscreen.bmp	square.bmp
289	practice	practice_bottomright_diff	10	706	18	mask.bmp	blankscreen.bmp	practice12.jpg	blankscreen.bmp	circle.bmp
289	practice	practice_bottomright_same	11	927	18	mask.bmp	blankscreen.bmp	practice7.jpg	blankscreen.bmp	circle.bmp
289	practice	practice_bottomleft_same	12	2154	18	mask.bmp	blankscreen.bmp	practice6.jpg	blankscreen.bmp	circle.bmp
289	real_a	real_topright_diff_a	1	1660	23	mask.bmp	blankscreen.bmp	wfd2.bmp	blankscreen.bmp	square.bmp
289	real_a	real_topright_diff_a	2	888	23	mask.bmp	blankscreen.bmp	wmn1.bmp	blankscreen.bmp	square.bmp
289	real_a	real_bottomright_diff_a	3	605	23	mask.bmp	blankscreen.bmp	wmn3.bmp	blankscreen.bmp	square.bmp
289	real_a	real_topright_same_a	4	598	23	mask.bmp	blankscreen.bmp	wmn4.bmp	blankscreen.bmp	square.bmp
289	real_a	real_topleft_diff_a	5	904	18	mask.bmp	blankscreen.bmp	wmd2.bmp	blankscreen.bmp	circle.bmp
289	real_a	real_topright_same_a	6	629	18	mask.bmp	blankscreen.bmp	wfd5.bmp	blankscreen.bmp	circle.bmp
289	real_a	real_bottomleft_diff_a	7	1334	23	mask.bmp	blankscreen.bmp	wfn1.bmp	blankscreen.bmp	square.bmp
289	real_a	real_topleft_same_a	8	1480	18	mask.bmp	blankscreen.bmp	wfn4.bmp	blankscreen.bmp	circle.bmp
289	real_a	real_bottomright_same_a	9	796	23	mask.bmp	blankscreen.bmp	wmd5.bmp	blankscreen.bmp	square.bmp
289	real_a	real_topleft_diff_a	10	597	18	mask.bmp	blankscreen.bmp	wfn3.bmp	blankscreen.bmp	circle.bmp
289	real_a	real_bottomleft_same_a	11	1792	18	mask.bmp	blankscreen.bmp	wmd4.bmp	blankscreen.bmp	circle.bmp
289	real_a	real_topleft_same_a	12	1182	23	mask.bmp	blankscreen.bmp	wfd4.bmp	blankscreen.bmp	square.bmp
289	real_a	real_topleft_diff_a	13	2983	23	mask.bmp	blankscreen.bmp	wfd1.bmp	blankscreen.bmp	square.bmp
289	real_a	real_bottomleft_diff_a	14	586	18	mask.bmp	blankscreen.bmp	wmn2.bmp	blankscreen.bmp	circle.bmp
289	real_a	real_bottomleft_same_a	15	1494	23	mask.bmp	blankscreen.bmp	wfn5.bmp	blankscreen.bmp	square.bmp
289	real_a	real_topright_diff_a	16	800	18	mask.bmp	blankscreen.bmp	wmd3.bmp	blankscreen.bmp	circle.bmp
289	real_a	real_bottomright_diff_a	17	1409	18	mask.bmp	blankscreen.bmp	wmd1.bmp	blankscreen.bmp	square.bmp
289	real_a	real_bottomright_same_a	18	1088	23	mask.bmp	blankscreen.bmp	wmn5.bmp	blankscreen.bmp	square.bmp
289	real_a	real_bottomleft_diff_a	19	1509	18	mask.bmp	blankscreen.bmp	wfd3.bmp	blankscreen.bmp	circle.bmp
289	real_a	real_bottomright_diff_a	20	1192	18	mask.bmp	blankscreen.bmp	wfn2.bmp	blankscreen.bmp	circle.bmp
289	real_b	real_bottomright_same_b	1	1166	18	mask.bmp	blankscreen.bmp	wfd10.bmp	blankscreen.bmp	circle.bmp
289	real_b	real_topright_diff_b	2	816	23	mask.bmp	blankscreen.bmp	wfd8.bmp	blankscreen.bmp	square.bmp
289	real_b	real_bottomleft_diff_b	3	505	18	mask.bmp	blankscreen.bmp	wmd6.bmp	blankscreen.bmp	circle.bmp
289	real_b	real_topleft_diff_b	4	1030	23	mask.bmp	blankscreen.bmp	wmd8.bmp	blankscreen.bmp	square.bmp
289	real_b	real_topright_diff_b	5	3005	18	mask.bmp	blankscreen.bmp	wmn7.bmp	blankscreen.bmp	circle.bmp
289	real_b	real_topleft_same_b	6	840	23	mask.bmp	blankscreen.bmp	wmn9.bmp	blankscreen.bmp	square.bmp
289	real_b	real_bottomleft_diff_b	7	1015	18	mask.bmp	blankscreen.bmp	wmn8.bmp	blankscreen.bmp	circle.bmp
289	real_b	real_topright_diff_b	8	1007	18	mask.bmp	blankscreen.bmp	wfn6.bmp	blankscreen.bmp	circle.bmp
289	real_b	real_topleft_same_b	9	767	23	mask.bmp	blankscreen.bmp	wmd9.bmp	blankscreen.bmp	square.bmp
289	real_b	real_topleft_diff_b	10	698	18	mask.bmp	blankscreen.bmp	wmn6.bmp	blankscreen.bmp	circle.bmp
289	real_b	real_bottomleft_same_b	11	1080	18	mask.bmp	blankscreen.bmp	wfd9.bmp	blankscreen.bmp	circle.bmp
289	real_b	real_topright_same_b	12	1453	23	mask.bmp	blankscreen.bmp	wmn10.bmp	blankscreen.bmp	square.bmp
289	real_b	real_bottomleft_same_b	13	1258	23	mask.bmp	blankscreen.bmp	wmd10.bmp	blankscreen.bmp	square.bmp
289	real_b	real_topright_same_b	14	1056	23	mask.bmp	blankscreen.bmp	wfn9.bmp	blankscreen.bmp	square.bmp
289	real_b	real_bottomright_diff_b	15	501	18	mask.bmp	blankscreen.bmp	wmd7.bmp	blankscreen.bmp	circle.bmp
289	real_b	real_bottomright_diff_b	16	812	18	mask.bmp	blankscreen.bmp	wfd6.bmp	blankscreen.bmp	circle.bmp
289	real_b	real_bottomleft_diff_b	17	1813	23	mask.bmp	blankscreen.bmp	wfn7.bmp	blankscreen.bmp	square.bmp
289	real_b	real_bottomright_diff_b	18	922	18	mask.bmp	blankscreen.bmp	wfn8.bmp	blankscreen.bmp	circle.bmp
289	real_b	real_bottomright_same_b	19	2014	18	mask.bmp	blankscreen.bmp	wfn10.bmp	blankscreen.bmp	circle.bmp
289	real_b	real_topleft_diff_b	20	2082	18	mask.bmp	blankscreen.bmp	wfd7.bmp	blankscreen.bmp	circle.bmp
289	real_c	real_bottomright_same_c	1	870	23	mask.bmp	blankscreen.bmp	wmn2.bmp	blankscreen.bmp	square.bmp
289	real_c	real_bottomright_diff_c	2	1100	23	mask.bmp	blankscreen.bmp	wmn4.bmp	blankscreen.bmp	square.bmp
289	real_c	real_topright_diff_c	3	537	18	mask.bmp	blankscreen.bmp	wfn5.bmp	blankscreen.bmp	circle.bmp
289	real_c	real_bottomleft_diff_c	4	589	18	mask.bmp	blankscreen.bmp	wfn3.bmp	blankscreen.bmp	circle.bmp
289	real_c	real_bottomleft_same_c	5	615	23	mask.bmp	blankscreen.bmp	wmn1.bmp	blankscreen.bmp	square.bmp
289	real_c	real_bottomleft_diff_c	6	568	23	mask.bmp	blankscreen.bmp	wmd5.bmp	blankscreen.bmp	square.bmp
289	real_c	real_topleft_diff_c	7	787	23	mask.bmp	blankscreen.bmp	wfn4.bmp	blankscreen.bmp	square.bmp
289	real_c	real_topleft_same_c	8	1829	23	mask.bmp	blankscreen.bmp	wfd1.bmp	blankscreen.bmp	square.bmp
289	real_c	real_bottomleft_same_c	9	1610	18	mask.bmp	blankscreen.bmp	wfd2.bmp	blankscreen.bmp	circle.bmp
289	real_c	real_topright_same_c	10	1416	18	mask.bmp	blankscreen.bmp	wmd1.bmp	blankscreen.bmp	circle.bmp
289	real_c	real_topright_same_c	11	1263	18	mask.bmp	blankscreen.bmp	wfn2.bmp	blankscreen.bmp	circle.bmp
289	real_c	real_topright_diff_c	12	1764	18	mask.bmp	blankscreen.bmp	wmd4.bmp	blankscreen.bmp	circle.bmp
289	real_c	real_bottomright_diff_c	13	1020	18	mask.bmp	blankscreen.bmp	wfd5.bmp	blankscreen.bmp	circle.bmp
289	real_c	real_topleft_diff_c	14	620	18	mask.bmp	blankscreen.bmp	wfd3.bmp	blankscreen.bmp	circle.bmp
289	real_c	real_bottomright_same_c	15	1045	23	mask.bmp	blankscreen.bmp	wmd2.bmp	blankscreen.bmp	square.bmp
289	real_c	real_topleft_same_c	16	1620	23	mask.bmp	blankscreen.bmp	wfn1.bmp	blankscreen.bmp	square.bmp
289	real_c	real_bottomleft_diff_c	17	1474	23	mask.bmp	blankscreen.bmp	wfd4.bmp	blankscreen.bmp	square.bmp
289	real_c	real_topleft_diff_c	18	1110	23	mask.bmp	blankscreen.bmp	wmn5.bmp	blankscreen.bmp	square.bmp
289	real_c	real_topright_diff_c	19	930	23	mask.bmp	blankscreen.bmp	wmn3.bmp	blankscreen.bmp	square.bmp
289	real_c	real_bottomright_diff_c	20	853	23	mask.bmp	blankscreen.bmp	wmd3.bmp	blankscreen.bmp	square.bmp
289	real_d	real_topleft_diff_d	1	946	18	mask.bmp	blankscreen.bmp	wmd9.bmp	blankscreen.bmp	circle.bmp
289	real_d	real_topleft_diff_d	2	1061	23	mask.bmp	blankscreen.bmp	wfn10.bmp	blankscreen.bmp	square.bmp
289	real_d	real_bottomright_diff_d	3	651	18	mask.bmp	blankscreen.bmp	wmn10.bmp	blankscreen.bmp	circle.bmp
289	real_d	real_topright_diff_d	4	946	18	mask.bmp	blankscreen.bmp	wmd10.bmp	blankscreen.bmp	circle.bmp
289	real_d	real_topright_diff_d	5	1173	18	mask.bmp	blankscreen.bmp	wfd9.bmp	blankscreen.bmp	circle.bmp
289	real_d	real_bottomleft_same_d	6	766	23	mask.bmp	blankscreen.bmp	wmn7.bmp	blankscreen.bmp	square.bmp
289	real_d	real_bottomright_same_d	7	1281	23	mask.bmp	blankscreen.bmp	wfd7.bmp	blankscreen.bmp	square.bmp
289	real_d	real_topright_same_d	8	750	18	mask.bmp	blankscreen.bmp	wmd7.bmp	blankscreen.bmp	circle.bmp
289	real_d	real_bottomleft_same_d	9	825	18	mask.bmp	blankscreen.bmp	wfn6.bmp	blankscreen.bmp	circle.bmp
289	real_d	real_bottomleft_diff_d	10	529	23	mask.bmp	blankscreen.bmp	wmd8.bmp	blankscreen.bmp	square.bmp
289	real_d	real_bottomright_diff_d	11	1278	23	mask.bmp	blankscreen.bmp	wfd8.bmp	blankscreen.bmp	square.bmp
289	real_d	real_bottomleft_diff_d	12	690	18	mask.bmp	blankscreen.bmp	wfd10.bmp	blankscreen.bmp	circle.bmp
289	real_d	real_topleft_same_d	13	680	23	mask.bmp	blankscreen.bmp	wmn6.bmp	blankscreen.bmp	square.bmp
289	real_d	real_bottomright_same_d	14	822	23	mask.bmp	blankscreen.bmp	wfn7.bmp	blankscreen.bmp	square.bmp
289	real_d	real_topright_diff_d	15	718	23	mask.bmp	blankscreen.bmp	wfn8.bmp	blankscreen.bmp	square.bmp
289	real_d	real_bottomright_diff_d	16	547	18	mask.bmp	blankscreen.bmp	wfn9.bmp	blankscreen.bmp	circle.bmp
289	real_d	real_topright_same_d	17	951	18	mask.bmp	blankscreen.bmp	wfd6.bmp	blankscreen.bmp	circle.bmp
289	real_d	real_bottomleft_diff_d	18	634	23	mask.bmp	blankscreen.bmp	wmn9.bmp	blankscreen.bmp	square.bmp
289	real_d	real_topleft_diff_d	19	723	18	mask.bmp	blankscreen.bmp	wmn8.bmp	blankscreen.bmp	circle.bmp
289	real_d	real_topleft_same_d	20	919	23	mask.bmp	blankscreen.bmp	wmd6.bmp	blankscreen.bmp	square.bmp
290	practice	practice_bottomleft_same	1	836	18	mask.bmp	blankscreen.bmp	practice5.jpg	blankscreen.bmp	circle.bmp
290	practice	practice_topright_diff	2	676	18	mask.bmp	blankscreen.bmp	practice10.jpg	blankscreen.bmp	circle.bmp
290	practice	practice_bottomright_diff	3	762	23	mask.bmp	blankscreen.bmp	practice12.jpg	blankscreen.bmp	square.bmp
290	practice	practice_topleft_same	4	517	18	mask.bmp	blankscreen.bmp	practice2.jpg	blankscreen.bmp	square.bmp
290	practice	practice_topright_same	5	579	23	mask.bmp	blankscreen.bmp	practice4.jpg	blankscreen.bmp	square.bmp
290	practice	practice_bottomright_same	6	749	18	mask.bmp	blankscreen.bmp	practice7.jpg	blankscreen.bmp	circle.bmp
290	practice	practice_topleft_diff	7	673	23	mask.bmp	blankscreen.bmp	practice9.jpg	blankscreen.bmp	circle.bmp
290	practice	practice_bottomright_same	8	663	23	mask.bmp	blankscreen.bmp	practice8.jpg	blankscreen.bmp	square.bmp
290	practice	practice_bottomleft_same	9	782	18	mask.bmp	blankscreen.bmp	practice6.jpg	blankscreen.bmp	circle.bmp
290	practice	practice_topright_same	10	656	18	mask.bmp	blankscreen.bmp	practice3.jpg	blankscreen.bmp	circle.bmp
290	practice	practice_bottomleft_diff	11	728	23	mask.bmp	blankscreen.bmp	practice11.jpg	blankscreen.bmp	square.bmp
290	practice	practice_topleft_same	12	716	18	mask.bmp	blankscreen.bmp	practice1.jpg	blankscreen.bmp	circle.bmp
290	real_a	real_bottomleft_same_a	1	591	18	mask.bmp	blankscreen.bmp	wfn5.bmp	blankscreen.bmp	circle.bmp
290	real_a	real_topleft_same_a	2	817	23	mask.bmp	blankscreen.bmp	wfd4.bmp	blankscreen.bmp	square.bmp
290	real_a	real_bottomright_diff_a	3	697	23	mask.bmp	blankscreen.bmp	wfn2.bmp	blankscreen.bmp	square.bmp
290	real_a	real_topleft_diff_a	4	599	23	mask.bmp	blankscreen.bmp	wfn3.bmp	blankscreen.bmp	square.bmp
290	real_a	real_bottomright_diff_a	5	641	23	mask.bmp	blankscreen.bmp	wmd1.bmp	blankscreen.bmp	square.bmp
290	real_a	real_topright_same_a	6	633	18	mask.bmp	blankscreen.bmp	wfd5.bmp	blankscreen.bmp	circle.bmp
290	real_a	real_topleft_diff_a	7	897	18	mask.bmp	blankscreen.bmp	wfd1.bmp	blankscreen.bmp	square.bmp
290	real_a	real_bottomright_same_a	8	782	23	mask.bmp	blankscreen.bmp	wmd5.bmp	blankscreen.bmp	square.bmp
290	real_a	real_bottomleft_diff_a	9	800	23	mask.bmp	blankscreen.bmp	wfd3.bmp	blankscreen.bmp	square.bmp
290	real_a	real_bottomleft_same_a	10	714	23	mask.bmp	blankscreen.bmp	wmd4.bmp	blankscreen.bmp	square.bmp
290	real_a	real_topleft_same_a	11	655	23	mask.bmp	blankscreen.bmp	wfn4.bmp	blankscreen.bmp	square.bmp
290	real_a	real_topright_diff_a	12	614	23	mask.bmp	blankscreen.bmp	wmd3.bmp	blankscreen.bmp	square.bmp
290	real_a	real_topright_diff_a	13	751	18	mask.bmp	blankscreen.bmp	wmn1.bmp	blankscreen.bmp	circle.bmp
290	real_a	real_topleft_diff_a	14	1218	18	mask.bmp	blankscreen.bmp	wmd2.bmp	blankscreen.bmp	circle.bmp
290	real_a	real_topright_diff_a	15	738	18	mask.bmp	blankscreen.bmp	wfd2.bmp	blankscreen.bmp	circle.bmp
290	real_a	real_bottomright_diff_a	16	949	18	mask.bmp	blankscreen.bmp	wmn3.bmp	blankscreen.bmp	square.bmp
290	real_a	real_topright_same_a	17	720	23	mask.bmp	blankscreen.bmp	wmn4.bmp	blankscreen.bmp	square.bmp
290	real_a	real_bottomleft_diff_a	18	1117	18	mask.bmp	blankscreen.bmp	wfn1.bmp	blankscreen.bmp	circle.bmp
290	real_a	real_bottomleft_diff_a	19	809	18	mask.bmp	blankscreen.bmp	wmn2.bmp	blankscreen.bmp	circle.bmp
290	real_a	real_bottomright_same_a	20	658	18	mask.bmp	blankscreen.bmp	wmn5.bmp	blankscreen.bmp	circle.bmp
290	real_b	real_topright_same_b	1	722	18	mask.bmp	blankscreen.bmp	wfn9.bmp	blankscreen.bmp	circle.bmp
290	real_b	real_topleft_diff_b	2	742	23	mask.bmp	blankscreen.bmp	wmn6.bmp	blankscreen.bmp	square.bmp
290	real_b	real_bottomleft_diff_b	3	1082	23	mask.bmp	blankscreen.bmp	wmn8.bmp	blankscreen.bmp	square.bmp
290	real_b	real_bottomleft_diff_b	4	663	18	mask.bmp	blankscreen.bmp	wfn7.bmp	blankscreen.bmp	circle.bmp
290	real_b	real_bottomleft_same_b	5	558	18	mask.bmp	blankscreen.bmp	wfd9.bmp	blankscreen.bmp	circle.bmp
290	real_b	real_bottomright_diff_b	6	866	23	mask.bmp	blankscreen.bmp	wfn8.bmp	blankscreen.bmp	square.bmp
290	real_b	real_topright_same_b	7	1096	18	mask.bmp	blankscreen.bmp	wmn10.bmp	blankscreen.bmp	circle.bmp
290	real_b	real_topleft_same_b	8	900	23	mask.bmp	blankscreen.bmp	wmn9.bmp	blankscreen.bmp	square.bmp
290	real_b	real_bottomright_same_b	9	505	23	mask.bmp	blankscreen.bmp	wfd10.bmp	blankscreen.bmp	square.bmp
290	real_b	real_topleft_diff_b	10	543	23	mask.bmp	blankscreen.bmp	wmd8.bmp	blankscreen.bmp	square.bmp
290	real_b	real_bottomright_diff_b	11	651	18	mask.bmp	blankscreen.bmp	wmd7.bmp	blankscreen.bmp	circle.bmp
290	real_b	real_topright_diff_b	12	579	23	mask.bmp	blankscreen.bmp	wfd8.bmp	blankscreen.bmp	square.bmp
290	real_b	real_bottomleft_same_b	13	606	18	mask.bmp	blankscreen.bmp	wmd10.bmp	blankscreen.bmp	circle.bmp
290	real_b	real_bottomright_diff_b	14	607	23	mask.bmp	blankscreen.bmp	wfd6.bmp	blankscreen.bmp	square.bmp
290	real_b	real_topright_diff_b	15	616	23	mask.bmp	blankscreen.bmp	wfn6.bmp	blankscreen.bmp	square.bmp
290	real_b	real_topright_diff_b	16	649	18	mask.bmp	blankscreen.bmp	wmn7.bmp	blankscreen.bmp	circle.bmp
290	real_b	real_bottomright_same_b	17	617	23	mask.bmp	blankscreen.bmp	wfn10.bmp	blankscreen.bmp	square.bmp
290	real_b	real_topleft_same_b	18	650	23	mask.bmp	blankscreen.bmp	wmd9.bmp	blankscreen.bmp	square.bmp
290	real_b	real_bottomleft_diff_b	19	554	23	mask.bmp	blankscreen.bmp	wmd6.bmp	blankscreen.bmp	square.bmp
290	real_b	real_topleft_diff_b	20	701	18	mask.bmp	blankscreen.bmp	wfd7.bmp	blankscreen.bmp	circle.bmp
290	real_c	real_bottomleft_same_c	1	1089	23	mask.bmp	blankscreen.bmp	wfd2.bmp	blankscreen.bmp	square.bmp
290	real_c	real_topright_same_c	2	701	18	mask.bmp	blankscreen.bmp	wmd1.bmp	blankscreen.bmp	circle.bmp
290	real_c	real_bottomleft_diff_c	3	683	18	mask.bmp	blankscreen.bmp	wfn3.bmp	blankscreen.bmp	circle.bmp
290	real_c	real_topright_same_c	4	825	18	mask.bmp	blankscreen.bmp	wfn2.bmp	blankscreen.bmp	circle.bmp
290	real_c	real_topright_diff_c	5	481	23	mask.bmp	blankscreen.bmp	wmd4.bmp	blankscreen.bmp	circle.bmp
290	real_c	real_bottomright_diff_c	6	552	18	mask.bmp	blankscreen.bmp	wfd5.bmp	blankscreen.bmp	circle.bmp
290	real_c	real_bottomright_diff_c	7	788	23	mask.bmp	blankscreen.bmp	wmd3.bmp	blankscreen.bmp	square.bmp
290	real_c	real_topleft_same_c	8	622	18	mask.bmp	blankscreen.bmp	wfd1.bmp	blankscreen.bmp	circle.bmp
290	real_c	real_topleft_diff_c	9	574	18	mask.bmp	blankscreen.bmp	wmn5.bmp	blankscreen.bmp	circle.bmp
290	real_c	real_topright_diff_c	10	561	18	mask.bmp	blankscreen.bmp	wfn5.bmp	blankscreen.bmp	circle.bmp
290	real_c	real_topleft_diff_c	11	860	18	mask.bmp	blankscreen.bmp	wfn4.bmp	blankscreen.bmp	circle.bmp
290	real_c	real_bottomright_diff_c	12	723	23	mask.bmp	blankscreen.bmp	wmn4.bmp	blankscreen.bmp	square.bmp
290	real_c	real_topleft_diff_c	13	775	18	mask.bmp	blankscreen.bmp	wfd3.bmp	blankscreen.bmp	circle.bmp
290	real_c	real_bottomleft_same_c	14	633	18	mask.bmp	blankscreen.bmp	wmn1.bmp	blankscreen.bmp	circle.bmp
290	real_c	real_bottomleft_diff_c	15	1017	23	mask.bmp	blankscreen.bmp	wfd4.bmp	blankscreen.bmp	square.bmp
290	real_c	real_topleft_same_c	16	681	23	mask.bmp	blankscreen.bmp	wfn1.bmp	blankscreen.bmp	square.bmp
290	real_c	real_bottomright_same_c	17	792	23	mask.bmp	blankscreen.bmp	wmd2.bmp	blankscreen.bmp	square.bmp
290	real_c	real_topright_diff_c	18	753	23	mask.bmp	blankscreen.bmp	wmn3.bmp	blankscreen.bmp	square.bmp
290	real_c	real_bottomright_same_c	19	653	18	mask.bmp	blankscreen.bmp	wmn2.bmp	blankscreen.bmp	circle.bmp
290	real_c	real_bottomleft_diff_c	20	924	23	mask.bmp	blankscreen.bmp	wmd5.bmp	blankscreen.bmp	square.bmp
290	real_d	real_topleft_same_d	1	897	18	mask.bmp	blankscreen.bmp	wmd6.bmp	blankscreen.bmp	circle.bmp
290	real_d	real_bottomright_same_d	2	606	18	mask.bmp	blankscreen.bmp	wfd7.bmp	blankscreen.bmp	circle.bmp
290	real_d	real_topright_diff_d	3	664	23	mask.bmp	blankscreen.bmp	wfd9.bmp	blankscreen.bmp	square.bmp
290	real_d	real_topright_diff_d	4	575	18	mask.bmp	blankscreen.bmp	wmd10.bmp	blankscreen.bmp	circle.bmp
290	real_d	real_topright_same_d	5	553	18	mask.bmp	blankscreen.bmp	wfd6.bmp	blankscreen.bmp	circle.bmp
290	real_d	real_bottomleft_same_d	6	613	23	mask.bmp	blankscreen.bmp	wmn7.bmp	blankscreen.bmp	square.bmp
290	real_d	real_bottomleft_diff_d	7	902	18	mask.bmp	blankscreen.bmp	wmn9.bmp	blankscreen.bmp	circle.bmp
290	real_d	real_bottomright_diff_d	8	1059	18	mask.bmp	blankscreen.bmp	wmn10.bmp	blankscreen.bmp	square.bmp
290	real_d	real_topleft_same_d	9	561	18	mask.bmp	blankscreen.bmp	wmn6.bmp	blankscreen.bmp	circle.bmp
290	real_d	real_bottomleft_diff_d	10	652	23	mask.bmp	blankscreen.bmp	wfd10.bmp	blankscreen.bmp	square.bmp
290	real_d	real_bottomright_diff_d	11	396	23	mask.bmp	blankscreen.bmp	wfn9.bmp	blankscreen.bmp	circle.bmp
290	real_d	real_topleft_diff_d	12	631	18	mask.bmp	blankscreen.bmp	wmd9.bmp	blankscreen.bmp	circle.bmp
290	real_d	real_bottomleft_same_d	13	847	18	mask.bmp	blankscreen.bmp	wfn6.bmp	blankscreen.bmp	circle.bmp
290	real_d	real_bottomleft_diff_d	14	1263	23	mask.bmp	blankscreen.bmp	wmd8.bmp	blankscreen.bmp	square.bmp
290	real_d	real_topright_same_d	15	708	23	mask.bmp	blankscreen.bmp	wmd7.bmp	blankscreen.bmp	square.bmp
290	real_d	real_topleft_diff_d	16	737	23	mask.bmp	blankscreen.bmp	wmn8.bmp	blankscreen.bmp	square.bmp
290	real_d	real_bottomright_diff_d	17	509	23	mask.bmp	blankscreen.bmp	wfd8.bmp	blankscreen.bmp	square.bmp
290	real_d	real_topleft_diff_d	18	618	18	mask.bmp	blankscreen.bmp	wfn10.bmp	blankscreen.bmp	circle.bmp
290	real_d	real_bottomright_same_d	19	708	23	mask.bmp	blankscreen.bmp	wfn7.bmp	blankscreen.bmp	square.bmp
290	real_d	real_topright_diff_d	20	1185	23	mask.bmp	blankscreen.bmp	wfn8.bmp	blankscreen.bmp	square.bmp
292	practice	practice_bottomright_same	1	1188	18	mask.bmp	blankscreen.bmp	practice7.jpg	blankscreen.bmp	square.bmp
292	practice	practice_bottomright_same	2	1820	18	mask.bmp	blankscreen.bmp	practice8.jpg	blankscreen.bmp	circle.bmp
292	practice	practice_bottomleft_same	3	290	23	mask.bmp	blankscreen.bmp	practice6.jpg	blankscreen.bmp	square.bmp
292	practice	practice_topright_same	4	321	18	mask.bmp	blankscreen.bmp	practice3.jpg	blankscreen.bmp	square.bmp
292	practice	practice_bottomleft_diff	5	694	23	mask.bmp	blankscreen.bmp	practice11.jpg	blankscreen.bmp	square.bmp
292	practice	practice_topleft_diff	6	764	18	mask.bmp	blankscreen.bmp	practice9.jpg	blankscreen.bmp	circle.bmp
292	practice	practice_topright_diff	7	623	18	mask.bmp	blankscreen.bmp	practice10.jpg	blankscreen.bmp	square.bmp
292	practice	practice_bottomleft_same	8	615	18	mask.bmp	blankscreen.bmp	practice5.jpg	blankscreen.bmp	square.bmp
292	practice	practice_topleft_same	9	425	18	mask.bmp	blankscreen.bmp	practice2.jpg	blankscreen.bmp	square.bmp
292	practice	practice_topleft_same	10	642	18	mask.bmp	blankscreen.bmp	practice1.jpg	blankscreen.bmp	square.bmp
292	practice	practice_bottomright_diff	11	649	18	mask.bmp	blankscreen.bmp	practice12.jpg	blankscreen.bmp	circle.bmp
292	practice	practice_topright_same	12	601	18	mask.bmp	blankscreen.bmp	practice4.jpg	blankscreen.bmp	circle.bmp
292	real_a	real_topright_diff_a	1	1220	18	mask.bmp	blankscreen.bmp	wmn1.bmp	blankscreen.bmp	square.bmp
292	real_a	real_topleft_same_a	2	819	18	mask.bmp	blankscreen.bmp	wfn4.bmp	blankscreen.bmp	square.bmp
292	real_a	real_bottomright_diff_a	3	875	18	mask.bmp	blankscreen.bmp	wmd1.bmp	blankscreen.bmp	square.bmp
292	real_a	real_topleft_diff_a	4	1617	23	mask.bmp	blankscreen.bmp	wmd2.bmp	blankscreen.bmp	circle.bmp
292	real_a	real_topright_same_a	5	1823	18	mask.bmp	blankscreen.bmp	wfd5.bmp	blankscreen.bmp	square.bmp
292	real_a	real_bottomright_diff_a	6	725	23	mask.bmp	blankscreen.bmp	wmn3.bmp	blankscreen.bmp	circle.bmp
292	real_a	real_topright_diff_a	7	1593	23	mask.bmp	blankscreen.bmp	wmd3.bmp	blankscreen.bmp	circle.bmp
292	real_a	real_bottomleft_diff_a	8	1608	18	mask.bmp	blankscreen.bmp	wfd3.bmp	blankscreen.bmp	square.bmp
292	real_a	real_bottomleft_same_a	9	1278	23	mask.bmp	blankscreen.bmp	wmd4.bmp	blankscreen.bmp	circle.bmp
292	real_a	real_bottomright_same_a	10	595	23	mask.bmp	blankscreen.bmp	wmn5.bmp	blankscreen.bmp	square.bmp
292	real_a	real_bottomright_same_a	11	1005	18	mask.bmp	blankscreen.bmp	wmd5.bmp	blankscreen.bmp	circle.bmp
292	real_a	real_bottomleft_diff_a	12	453	18	mask.bmp	blankscreen.bmp	wfn1.bmp	blankscreen.bmp	square.bmp
292	real_a	real_bottomright_diff_a	13	862	18	mask.bmp	blankscreen.bmp	wfn2.bmp	blankscreen.bmp	circle.bmp
292	real_a	real_topright_same_a	14	764	18	mask.bmp	blankscreen.bmp	wmn4.bmp	blankscreen.bmp	circle.bmp
292	real_a	real_bottomleft_same_a	15	495	18	mask.bmp	blankscreen.bmp	wfn5.bmp	blankscreen.bmp	square.bmp
292	real_a	real_topleft_same_a	16	421	18	mask.bmp	blankscreen.bmp	wfd4.bmp	blankscreen.bmp	square.bmp
292	real_a	real_bottomleft_diff_a	17	718	23	mask.bmp	blankscreen.bmp	wmn2.bmp	blankscreen.bmp	square.bmp
292	real_a	real_topleft_diff_a	18	947	18	mask.bmp	blankscreen.bmp	wfn3.bmp	blankscreen.bmp	circle.bmp
292	real_a	real_topleft_diff_a	19	950	18	mask.bmp	blankscreen.bmp	wfd1.bmp	blankscreen.bmp	square.bmp
292	real_a	real_topright_diff_a	20	785	18	mask.bmp	blankscreen.bmp	wfd2.bmp	blankscreen.bmp	circle.bmp
292	real_b	real_topleft_diff_b	1	722	18	mask.bmp	blankscreen.bmp	wfd7.bmp	blankscreen.bmp	circle.bmp
292	real_b	real_bottomleft_same_b	2	831	23	mask.bmp	blankscreen.bmp	wmd10.bmp	blankscreen.bmp	square.bmp
292	real_b	real_bottomleft_same_b	3	1686	18	mask.bmp	blankscreen.bmp	wfd9.bmp	blankscreen.bmp	circle.bmp
292	real_b	real_bottomright_diff_b	4	1338	18	mask.bmp	blankscreen.bmp	wmd7.bmp	blankscreen.bmp	circle.bmp
292	real_b	real_bottomleft_diff_b	5	1180	23	mask.bmp	blankscreen.bmp	wmd6.bmp	blankscreen.bmp	circle.bmp
292	real_b	real_bottomright_diff_b	6	509	18	mask.bmp	blankscreen.bmp	wfn8.bmp	blankscreen.bmp	circle.bmp
292	real_b	real_bottomleft_diff_b	7	819	18	mask.bmp	blankscreen.bmp	wfn7.bmp	blankscreen.bmp	circle.bmp
292	real_b	real_topright_diff_b	8	883	18	mask.bmp	blankscreen.bmp	wfn6.bmp	blankscreen.bmp	circle.bmp
292	real_b	real_topleft_same_b	9	809	18	mask.bmp	blankscreen.bmp	wmd9.bmp	blankscreen.bmp	square.bmp
292	real_b	real_bottomright_same_b	10	658	18	mask.bmp	blankscreen.bmp	wfn10.bmp	blankscreen.bmp	square.bmp
292	real_b	real_topright_same_b	11	921	18	mask.bmp	blankscreen.bmp	wfn9.bmp	blankscreen.bmp	circle.bmp
292	real_b	real_bottomright_diff_b	12	405	23	mask.bmp	blankscreen.bmp	wfd6.bmp	blankscreen.bmp	square.bmp
292	real_b	real_topleft_diff_b	13	439	23	mask.bmp	blankscreen.bmp	wmn6.bmp	blankscreen.bmp	circle.bmp
292	real_b	real_topleft_diff_b	14	159	23	mask.bmp	blankscreen.bmp	wmd8.bmp	blankscreen.bmp	circle.bmp
292	real_b	real_topleft_same_b	15	1516	18	mask.bmp	blankscreen.bmp	wmn9.bmp	blankscreen.bmp	circle.bmp
292	real_b	real_topright_same_b	16	503	23	mask.bmp	blankscreen.bmp	wmn10.bmp	blankscreen.bmp	circle.bmp
292	real_b	real_topright_diff_b	17	501	23	mask.bmp	blankscreen.bmp	wfd8.bmp	blankscreen.bmp	circle.bmp
292	real_b	real_topright_diff_b	18	411	23	mask.bmp	blankscreen.bmp	wmn7.bmp	blankscreen.bmp	circle.bmp
292	real_b	real_bottomright_same_b	19	637	18	mask.bmp	blankscreen.bmp	wfd10.bmp	blankscreen.bmp	circle.bmp
292	real_b	real_bottomleft_diff_b	20	501	18	mask.bmp	blankscreen.bmp	wmn8.bmp	blankscreen.bmp	circle.bmp
292	real_c	real_topleft_diff_c	1	1697	23	mask.bmp	blankscreen.bmp	wmn5.bmp	blankscreen.bmp	square.bmp
292	real_c	real_bottomleft_same_c	2	555	23	mask.bmp	blankscreen.bmp	wmn1.bmp	blankscreen.bmp	square.bmp
292	real_c	real_topleft_diff_c	3	663	23	mask.bmp	blankscreen.bmp	wfd3.bmp	blankscreen.bmp	circle.bmp
292	real_c	real_bottomright_diff_c	4	502	23	mask.bmp	blankscreen.bmp	wmd3.bmp	blankscreen.bmp	circle.bmp
292	real_c	real_topleft_diff_c	5	388	23	mask.bmp	blankscreen.bmp	wfn4.bmp	blankscreen.bmp	square.bmp
292	real_c	real_bottomright_same_c	6	63	23	mask.bmp	blankscreen.bmp	wmn2.bmp	blankscreen.bmp	circle.bmp
292	real_c	real_topright_diff_c	7	39	23	mask.bmp	blankscreen.bmp	wmn3.bmp	blankscreen.bmp	circle.bmp
292	real_c	real_bottomleft_diff_c	8	529	18	mask.bmp	blankscreen.bmp	wfn3.bmp	blankscreen.bmp	circle.bmp
292	real_c	real_topright_same_c	9	302	23	mask.bmp	blankscreen.bmp	wmd1.bmp	blankscreen.bmp	circle.bmp
292	real_c	real_topright_diff_c	10	461	23	mask.bmp	blankscreen.bmp	wmd4.bmp	blankscreen.bmp	circle.bmp
292	real_c	real_topleft_same_c	11	596	18	mask.bmp	blankscreen.bmp	wfn1.bmp	blankscreen.bmp	square.bmp
292	real_c	real_bottomright_same_c	12	454	23	mask.bmp	blankscreen.bmp	wmd2.bmp	blankscreen.bmp	square.bmp
292	real_c	real_bottomleft_same_c	13	702	18	mask.bmp	blankscreen.bmp	wfd2.bmp	blankscreen.bmp	circle.bmp
292	real_c	real_bottomleft_diff_c	14	412	18	mask.bmp	blankscreen.bmp	wfd4.bmp	blankscreen.bmp	circle.bmp
292	real_c	real_bottomright_diff_c	15	542	18	mask.bmp	blankscreen.bmp	wfd5.bmp	blankscreen.bmp	square.bmp
292	real_c	real_topright_same_c	16	666	18	mask.bmp	blankscreen.bmp	wfn2.bmp	blankscreen.bmp	square.bmp
292	real_c	real_bottomleft_diff_c	17	1025	18	mask.bmp	blankscreen.bmp	wmd5.bmp	blankscreen.bmp	circle.bmp
292	real_c	real_bottomright_diff_c	18	416	23	mask.bmp	blankscreen.bmp	wmn4.bmp	blankscreen.bmp	circle.bmp
292	real_c	real_topright_diff_c	19	458	18	mask.bmp	blankscreen.bmp	wfn5.bmp	blankscreen.bmp	square.bmp
292	real_c	real_topleft_same_c	20	434	18	mask.bmp	blankscreen.bmp	wfd1.bmp	blankscreen.bmp	square.bmp
292	real_d	real_topright_diff_d	1	962	23	mask.bmp	blankscreen.bmp	wmd10.bmp	blankscreen.bmp	square.bmp
292	real_d	real_topleft_same_d	2	356	23	mask.bmp	blankscreen.bmp	wmd6.bmp	blankscreen.bmp	circle.bmp
292	real_d	real_bottomright_diff_d	3	256	18	mask.bmp	blankscreen.bmp	wfn9.bmp	blankscreen.bmp	circle.bmp
292	real_d	real_topleft_diff_d	4	272	18	mask.bmp	blankscreen.bmp	wfn10.bmp	blankscreen.bmp	square.bmp
292	real_d	real_topright_diff_d	5	1768	18	mask.bmp	blankscreen.bmp	wfd9.bmp	blankscreen.bmp	square.bmp
292	real_d	real_bottomleft_diff_d	6	296	23	mask.bmp	blankscreen.bmp	wmd8.bmp	blankscreen.bmp	square.bmp
292	real_d	real_bottomleft_diff_d	7	367	18	mask.bmp	blankscreen.bmp	wfd10.bmp	blankscreen.bmp	circle.bmp
292	real_d	real_topright_diff_d	8	475	18	mask.bmp	blankscreen.bmp	wfn8.bmp	blankscreen.bmp	circle.bmp
292	real_d	real_topleft_diff_d	9	2129	23	mask.bmp	blankscreen.bmp	wmd9.bmp	blankscreen.bmp	circle.bmp
292	real_d	real_topright_same_d	10	378	23	mask.bmp	blankscreen.bmp	wfd6.bmp	blankscreen.bmp	square.bmp
292	real_d	real_bottomleft_same_d	11	853	23	mask.bmp	blankscreen.bmp	wfn6.bmp	blankscreen.bmp	square.bmp
292	real_d	real_bottomright_same_d	12	748	18	mask.bmp	blankscreen.bmp	wfn7.bmp	blankscreen.bmp	circle.bmp
292	real_d	real_topleft_same_d	13	767	23	mask.bmp	blankscreen.bmp	wmn6.bmp	blankscreen.bmp	circle.bmp
292	real_d	real_bottomleft_diff_d	14	610	18	mask.bmp	blankscreen.bmp	wmn9.bmp	blankscreen.bmp	circle.bmp
292	real_d	real_topleft_diff_d	15	380	23	mask.bmp	blankscreen.bmp	wmn8.bmp	blankscreen.bmp	square.bmp
292	real_d	real_bottomright_diff_d	16	1679	23	mask.bmp	blankscreen.bmp	wfd8.bmp	blankscreen.bmp	circle.bmp
292	real_d	real_bottomright_diff_d	17	530	18	mask.bmp	blankscreen.bmp	wmn10.bmp	blankscreen.bmp	square.bmp
292	real_d	real_bottomright_same_d	18	439	18	mask.bmp	blankscreen.bmp	wfd7.bmp	blankscreen.bmp	circle.bmp
292	real_d	real_topright_same_d	19	207	23	mask.bmp	blankscreen.bmp	wmd7.bmp	blankscreen.bmp	circle.bmp
292	real_d	real_bottomleft_same_d	20	1170	23	mask.bmp	blankscreen.bmp	wmn7.bmp	blankscreen.bmp	square.bmp
293	practice	practice_topright_diff	1	2395	18	mask.bmp	blankscreen.bmp	practice10.jpg	blankscreen.bmp	circle.bmp
293	practice	practice_topleft_same	2	1968	23	mask.bmp	blankscreen.bmp	practice2.jpg	blankscreen.bmp	square.bmp
293	practice	practice_topleft_diff	3	2303	18	mask.bmp	blankscreen.bmp	practice9.jpg	blankscreen.bmp	circle.bmp
293	practice	practice_topright_same	4	848	23	mask.bmp	blankscreen.bmp	practice3.jpg	blankscreen.bmp	square.bmp
293	practice	practice_bottomleft_same	5	1447	23	mask.bmp	blankscreen.bmp	practice6.jpg	blankscreen.bmp	square.bmp
293	practice	practice_bottomright_diff	6	1357	18	mask.bmp	blankscreen.bmp	practice12.jpg	blankscreen.bmp	circle.bmp
293	practice	practice_topleft_same	7	1189	23	mask.bmp	blankscreen.bmp	practice1.jpg	blankscreen.bmp	square.bmp
293	practice	practice_bottomright_same	8	1261	23	mask.bmp	blankscreen.bmp	practice8.jpg	blankscreen.bmp	square.bmp
293	practice	practice_bottomleft_diff	9	851	18	mask.bmp	blankscreen.bmp	practice11.jpg	blankscreen.bmp	circle.bmp
293	practice	practice_bottomright_same	10	1714	23	mask.bmp	blankscreen.bmp	practice7.jpg	blankscreen.bmp	square.bmp
293	practice	practice_bottomleft_same	11	1276	18	mask.bmp	blankscreen.bmp	practice5.jpg	blankscreen.bmp	circle.bmp
293	practice	practice_topright_same	12	1072	23	mask.bmp	blankscreen.bmp	practice4.jpg	blankscreen.bmp	square.bmp
293	real_a	real_topright_diff_a	1	1232	23	mask.bmp	blankscreen.bmp	wmd3.bmp	blankscreen.bmp	square.bmp
293	real_a	real_topleft_diff_a	2	1183	23	mask.bmp	blankscreen.bmp	wfn3.bmp	blankscreen.bmp	square.bmp
293	real_a	real_bottomright_diff_a	3	1400	23	mask.bmp	blankscreen.bmp	wmd1.bmp	blankscreen.bmp	square.bmp
293	real_a	real_bottomright_diff_a	4	1287	18	mask.bmp	blankscreen.bmp	wfn2.bmp	blankscreen.bmp	circle.bmp
293	real_a	real_bottomright_same_a	5	932	23	mask.bmp	blankscreen.bmp	wmn5.bmp	blankscreen.bmp	square.bmp
293	real_a	real_topright_same_a	6	1824	23	mask.bmp	blankscreen.bmp	wfd5.bmp	blankscreen.bmp	square.bmp
293	real_a	real_bottomright_diff_a	7	1718	18	mask.bmp	blankscreen.bmp	wmn3.bmp	blankscreen.bmp	circle.bmp
293	real_a	real_bottomright_same_a	8	3279	18	mask.bmp	blankscreen.bmp	wmd5.bmp	blankscreen.bmp	circle.bmp
293	real_a	real_topright_diff_a	9	2198	18	mask.bmp	blankscreen.bmp	wfd2.bmp	blankscreen.bmp	circle.bmp
