subject	blockcode	trialcode	trialnum	latency	response	stimulusitem1	stimulusitem2	stimulusitem3	stimulusitem4	stimulusitem5
282	practice	practice_topleft_same	1	3563	18	mask.bmp	blankscreen.bmp	practice2.jpg	blankscreen.bmp	circle.bmp
282	practice	practice_bottomleft_diff	2	1565	18	mask.bmp	blankscreen.bmp	practice11.jpg	blankscreen.bmp	circle.bmp
282	practice	practice_bottomright_diff	3	1589	23	mask.bmp	blankscreen.bmp	practice12.jpg	blankscreen.bmp	square.bmp
282	practice	practice_bottomright_same	4	1668	23	mask.bmp	blankscreen.bmp	practice8.jpg	blankscreen.bmp	square.bmp
282	practice	practice_bottomright_same	5	1240	18	mask.bmp	blankscreen.bmp	practice7.jpg	blankscreen.bmp	circle.bmp
282	practice	practice_topright_same	6	854	18	mask.bmp	blankscreen.bmp	practice3.jpg	blankscreen.bmp	circle.bmp
282	practice	practice_bottomleft_same	7	1157	23	mask.bmp	blankscreen.bmp	practice6.jpg	blankscreen.bmp	square.bmp
282	practice	practice_topright_diff	8	1246	23	mask.bmp	blankscreen.bmp	practice10.jpg	blankscreen.bmp	square.bmp
282	practice	practice_bottomleft_same	9	2373	18	mask.bmp	blankscreen.bmp	practice5.jpg	blankscreen.bmp	circle.bmp
282	practice	practice_topleft_diff	10	818	18	mask.bmp	blankscreen.bmp	practice9.jpg	blankscreen.bmp	circle.bmp
282	practice	practice_topright_same	11	843	18	mask.bmp	blankscreen.bmp	practice4.jpg	blankscreen.bmp	circle.bmp
282	practice	practice_topleft_same	12	778	23	mask.bmp	blankscreen.bmp	practice1.jpg	blankscreen.bmp	square.bmp
282	real_a	real_bottomleft_diff_a	1	1516	23	mask.bmp	blankscreen.bmp	wfn1.bmp	blankscreen.bmp	square.bmp
282	real_a	real_bottomright_same_a	2	1143	18	mask.bmp	blankscreen.bmp	wmd5.bmp	blankscreen.bmp	circle.bmp
282	real_a	real_topleft_diff_a	3	961	18	mask.bmp	blankscreen.bmp	wmd2.bmp	blankscreen.bmp	circle.bmp
282	real_a	real_topright_same_a	4	1067	18	mask.bmp	blankscreen.bmp	wfd5.bmp	blankscreen.bmp	circle.bmp
282	real_a	real_topright_diff_a	5	993	23	mask.bmp	blankscreen.bmp	wmd3.bmp	blankscreen.bmp	square.bmp
282	real_a	real_bottomright_diff_a	6	1002	23	mask.bmp	blankscreen.bmp	wmn3.bmp	blankscreen.bmp	square.bmp
282	real_a	real_topleft_same_a	7	1602	23	mask.bmp	blankscreen.bmp	wfd4.bmp	blankscreen.bmp	square.bmp
282	real_a	real_bottomright_same_a	8	1417	18	mask.bmp	blankscreen.bmp	wmn5.bmp	blankscreen.bmp	circle.bmp
282	real_a	real_topright_diff_a	9	1168	23	mask.bmp	blankscreen.bmp	wfd2.bmp	blankscreen.bmp	square.bmp
282	real_a	real_topleft_diff_a	10	1522	18	mask.bmp	blankscreen.bmp	wfd1.bmp	blankscreen.bmp	square.bmp
282	real_a	real_bottomleft_same_a	11	1924	18	mask.bmp	blankscreen.bmp	wfn5.bmp	blankscreen.bmp	circle.bmp
282	real_a	real_bottomleft_same_a	12	2460	23	mask.bmp	blankscreen.bmp	wmd4.bmp	blankscreen.bmp	square.bmp
282	real_a	real_bottomright_diff_a	13	902	23	mask.bmp	blankscreen.bmp	wmd1.bmp	blankscreen.bmp	square.bmp
282	real_a	real_topleft_same_a	14	851	18	mask.bmp	blankscreen.bmp	wfn4.bmp	blankscreen.bmp	circle.bmp
282	real_a	real_topright_same_a	15	970	23	mask.bmp	blankscreen.bmp	wmn4.bmp	blankscreen.bmp	square.bmp
282	real_a	real_topleft_diff_a	16	1812	18	mask.bmp	blankscreen.bmp	wfn3.bmp	blankscreen.bmp	circle.bmp
282	real_a	real_bottomleft_diff_a	17	746	23	mask.bmp	blankscreen.bmp	wmn2.bmp	blankscreen.bmp	square.bmp
282	real_a	real_bottomleft_diff_a	18	853	23	mask.bmp	blankscreen.bmp	wfd3.bmp	blankscreen.bmp	square.bmp
282	real_a	real_bottomright_diff_a	19	765	23	mask.bmp	blankscreen.bmp	wfn2.bmp	blankscreen.bmp	square.bmp
282	real_a	real_topright_diff_a	20	775	18	mask.bmp	blankscreen.bmp	wmn1.bmp	blankscreen.bmp	circle.bmp
282	real_b	real_topleft_diff_b	1	927	23	mask.bmp	blankscreen.bmp	wfd7.bmp	blankscreen.bmp	square.bmp
282	real_b	real_bottomleft_diff_b	2	1107	23	mask.bmp	blankscreen.bmp	wmd6.bmp	blankscreen.bmp	square.bmp
282	real_b	real_topleft_diff_b	3	855	23	mask.bmp	blankscreen.bmp	wmn6.bmp	blankscreen.bmp	square.bmp
282	real_b	real_bottomleft_same_b	4	853	18	mask.bmp	blankscreen.bmp	wmd10.bmp	blankscreen.bmp	circle.bmp
282	real_b	real_bottomleft_diff_b	5	692	18	mask.bmp	blankscreen.bmp	wmn8.bmp	blankscreen.bmp	circle.bmp
282	real_b	real_bottomright_diff_b	6	1098	23	mask.bmp	blankscreen.bmp	wfn8.bmp	blankscreen.bmp	square.bmp
282	real_b	real_bottomleft_same_b	7	886	18	mask.bmp	blankscreen.bmp	wfd9.bmp	blankscreen.bmp	circle.bmp
282	real_b	real_topleft_same_b	8	653	18	mask.bmp	blankscreen.bmp	wmd9.bmp	blankscreen.bmp	circle.bmp
282	real_b	real_bottomleft_diff_b	9	788	18	mask.bmp	blankscreen.bmp	wfn7.bmp	blankscreen.bmp	circle.bmp
282	real_b	real_topright_same_b	10	845	23	mask.bmp	blankscreen.bmp	wfn9.bmp	blankscreen.bmp	square.bmp
282	real_b	real_topleft_same_b	11	1444	18	mask.bmp	blankscreen.bmp	wmn9.bmp	blankscreen.bmp	circle.bmp
282	real_b	real_topright_diff_b	12	706	23	mask.bmp	blankscreen.bmp	wmn7.bmp	blankscreen.bmp	square.bmp
282	real_b	real_bottomright_same_b	13	735	23	mask.bmp	blankscreen.bmp	wfn10.bmp	blankscreen.bmp	square.bmp
282	real_b	real_bottomright_diff_b	14	691	23	mask.bmp	blankscreen.bmp	wfd6.bmp	blankscreen.bmp	square.bmp
282	real_b	real_bottomright_same_b	15	904	23	mask.bmp	blankscreen.bmp	wfd10.bmp	blankscreen.bmp	square.bmp
282	real_b	real_bottomright_diff_b	16	646	23	mask.bmp	blankscreen.bmp	wmd7.bmp	blankscreen.bmp	square.bmp
282	real_b	real_topleft_diff_b	17	621	18	mask.bmp	blankscreen.bmp	wmd8.bmp	blankscreen.bmp	circle.bmp
282	real_b	real_topright_diff_b	18	822	18	mask.bmp	blankscreen.bmp	wfn6.bmp	blankscreen.bmp	circle.bmp
282	real_b	real_topright_diff_b	19	1142	23	mask.bmp	blankscreen.bmp	wfd8.bmp	blankscreen.bmp	square.bmp
282	real_b	real_topright_same_b	20	760	18	mask.bmp	blankscreen.bmp	wmn10.bmp	blankscreen.bmp	circle.bmp
282	real_c	real_topleft_same_c	1	2535	23	mask.bmp	blankscreen.bmp	wfn1.bmp	blankscreen.bmp	square.bmp
282	real_c	real_bottomright_same_c	2	814	23	mask.bmp	blankscreen.bmp	wmn2.bmp	blankscreen.bmp	square.bmp
282	real_c	real_topleft_diff_c	3	887	18	mask.bmp	blankscreen.bmp	wmn5.bmp	blankscreen.bmp	circle.bmp
282	real_c	real_topright_diff_c	4	620	18	mask.bmp	blankscreen.bmp	wmd4.bmp	blankscreen.bmp	circle.bmp
282	real_c	real_bottomright_same_c	5	804	23	mask.bmp	blankscreen.bmp	wmd2.bmp	blankscreen.bmp	square.bmp
282	real_c	real_topright_same_c	6	1021	18	mask.bmp	blankscreen.bmp	wmd1.bmp	blankscreen.bmp	circle.bmp
282	real_c	real_topright_same_c	7	837	23	mask.bmp	blankscreen.bmp	wfn2.bmp	blankscreen.bmp	square.bmp
282	real_c	real_bottomleft_same_c	8	628	23	mask.bmp	blankscreen.bmp	wfd2.bmp	blankscreen.bmp	square.bmp
282	real_c	real_bottomleft_same_c	9	653	18	mask.bmp	blankscreen.bmp	wmn1.bmp	blankscreen.bmp	circle.bmp
282	real_c	real_bottomleft_diff_c	10	628	18	mask.bmp	blankscreen.bmp	wfn3.bmp	blankscreen.bmp	circle.bmp
282	real_c	real_bottomleft_diff_c	11	637	18	mask.bmp	blankscreen.bmp	wfd4.bmp	blankscreen.bmp	circle.bmp
282	real_c	real_bottomright_diff_c	12	533	18	mask.bmp	blankscreen.bmp	wfd5.bmp	blankscreen.bmp	circle.bmp
282	real_c	real_bottomleft_diff_c	13	729	18	mask.bmp	blankscreen.bmp	wmd5.bmp	blankscreen.bmp	circle.bmp
282	real_c	real_bottomright_diff_c	14	646	23	mask.bmp	blankscreen.bmp	wmd3.bmp	blankscreen.bmp	square.bmp
282	real_c	real_topleft_diff_c	15	565	23	mask.bmp	blankscreen.bmp	wfd3.bmp	blankscreen.bmp	square.bmp
282	real_c	real_topright_diff_c	16	537	18	mask.bmp	blankscreen.bmp	wmn3.bmp	blankscreen.bmp	circle.bmp
282	real_c	real_topleft_same_c	17	533	18	mask.bmp	blankscreen.bmp	wfd1.bmp	blankscreen.bmp	circle.bmp
282	real_c	real_topright_diff_c	18	650	18	mask.bmp	blankscreen.bmp	wfn5.bmp	blankscreen.bmp	circle.bmp
282	real_c	real_bottomright_diff_c	19	673	23	mask.bmp	blankscreen.bmp	wmn4.bmp	blankscreen.bmp	square.bmp
282	real_c	real_topleft_diff_c	20	624	18	mask.bmp	blankscreen.bmp	wfn4.bmp	blankscreen.bmp	circle.bmp
282	real_d	real_topleft_diff_d	1	2125	23	mask.bmp	blankscreen.bmp	wfn10.bmp	blankscreen.bmp	square.bmp
282	real_d	real_bottomleft_same_d	2	1541	18	mask.bmp	blankscreen.bmp	wfn6.bmp	blankscreen.bmp	circle.bmp
282	real_d	real_topright_same_d	3	664	18	mask.bmp	blankscreen.bmp	wfd6.bmp	blankscreen.bmp	circle.bmp
282	real_d	real_topright_diff_d	4	630	23	mask.bmp	blankscreen.bmp	wmd10.bmp	blankscreen.bmp	square.bmp
282	real_d	real_topright_diff_d	5	726	23	mask.bmp	blankscreen.bmp	wfn8.bmp	blankscreen.bmp	square.bmp
282	real_d	real_bottomleft_same_d	6	674	18	mask.bmp	blankscreen.bmp	wmn7.bmp	blankscreen.bmp	circle.bmp
282	real_d	real_topright_diff_d	7	609	18	mask.bmp	blankscreen.bmp	wfd9.bmp	blankscreen.bmp	circle.bmp
282	real_d	real_bottomright_same_d	8	498	18	mask.bmp	blankscreen.bmp	wfn7.bmp	blankscreen.bmp	circle.bmp
282	real_d	real_bottomleft_diff_d	9	648	18	mask.bmp	blankscreen.bmp	wfd10.bmp	blankscreen.bmp	circle.bmp
282	real_d	real_topright_same_d	10	664	23	mask.bmp	blankscreen.bmp	wmd7.bmp	blankscreen.bmp	square.bmp
282	real_d	real_bottomleft_diff_d	11	631	23	mask.bmp	blankscreen.bmp	wmd8.bmp	blankscreen.bmp	square.bmp
282	real_d	real_bottomleft_diff_d	12	735	23	mask.bmp	blankscreen.bmp	wmn9.bmp	blankscreen.bmp	square.bmp
282	real_d	real_topleft_diff_d	13	756	18	mask.bmp	blankscreen.bmp	wmd9.bmp	blankscreen.bmp	circle.bmp
282	real_d	real_topleft_same_d	14	799	18	mask.bmp	blankscreen.bmp	wmd6.bmp	blankscreen.bmp	circle.bmp
282	real_d	real_topleft_same_d	15	616	18	mask.bmp	blankscreen.bmp	wmn6.bmp	blankscreen.bmp	circle.bmp
282	real_d	real_bottomright_same_d	16	889	23	mask.bmp	blankscreen.bmp	wfd7.bmp	blankscreen.bmp	square.bmp
282	real_d	real_bottomright_diff_d	17	526	18	mask.bmp	blankscreen.bmp	wfn9.bmp	blankscreen.bmp	circle.bmp
282	real_d	real_bottomright_diff_d	18	715	23	mask.bmp	blankscreen.bmp	wfd8.bmp	blankscreen.bmp	square.bmp
282	real_d	real_bottomright_diff_d	19	736	23	mask.bmp	blankscreen.bmp	wmn10.bmp	blankscreen.bmp	square.bmp
282	real_d	real_topleft_diff_d	20	652	23	mask.bmp	blankscreen.bmp	wmn8.bmp	blankscreen.bmp	square.bmp
284	practice	practice_bottomright_same	1	766	18	mask.bmp	blankscreen.bmp	practice7.jpg	blankscreen.bmp	circle.bmp
284	practice	practice_bottomleft_same	2	593	18	mask.bmp	blankscreen.bmp	practice6.jpg	blankscreen.bmp	circle.bmp
284	practice	practice_topright_diff	3	483	18	mask.bmp	blankscreen.bmp	practice10.jpg	blankscreen.bmp	circle.bmp
284	practice	practice_topright_same	4	602	23	mask.bmp	blankscreen.bmp	practice4.jpg	blankscreen.bmp	square.bmp
284	practice	practice_bottomleft_same	5	603	18	mask.bmp	blankscreen.bmp	practice5.jpg	blankscreen.bmp	circle.bmp
284	practice	practice_topleft_diff	6	733	18	mask.bmp	blankscreen.bmp	practice9.jpg	blankscreen.bmp	circle.bmp
284	practice	practice_topleft_same	7	657	23	mask.bmp	blankscreen.bmp	practice2.jpg	blankscreen.bmp	square.bmp
284	practice	practice_topright_same	8	504	18	mask.bmp	blankscreen.bmp	practice3.jpg	blankscreen.bmp	circle.bmp
284	practice	practice_bottomright_same	9	334	23	mask.bmp	blankscreen.bmp	practice8.jpg	blankscreen.bmp	circle.bmp
284	practice	practice_topleft_same	10	587	18	mask.bmp	blankscreen.bmp	practice1.jpg	blankscreen.bmp	circle.bmp
284	practice	practice_bottomright_diff	11	701	18	mask.bmp	blankscreen.bmp	practice12.jpg	blankscreen.bmp	circle.bmp
284	practice	practice_bottomleft_diff	12	690	23	mask.bmp	blankscreen.bmp	practice11.jpg	blankscreen.bmp	square.bmp
284	real_a	real_bottomleft_diff_a	1	573	23	mask.bmp	blankscreen.bmp	wfn1.bmp	blankscreen.bmp	square.bmp
284	real_a	real_bottomleft_same_a	2	760	23	mask.bmp	blankscreen.bmp	wmd4.bmp	blankscreen.bmp	square.bmp
284	real_a	real_topleft_same_a	3	635	23	mask.bmp	blankscreen.bmp	wfn4.bmp	blankscreen.bmp	square.bmp
284	real_a	real_topright_same_a	4	523	18	mask.bmp	blankscreen.bmp	wfd5.bmp	blankscreen.bmp	circle.bmp
284	real_a	real_topright_diff_a	5	528	18	mask.bmp	blankscreen.bmp	wmn1.bmp	blankscreen.bmp	circle.bmp
284	real_a	real_topright_diff_a	6	469	23	mask.bmp	blankscreen.bmp	wfd2.bmp	blankscreen.bmp	square.bmp
284	real_a	real_bottomright_diff_a	7	492	18	mask.bmp	blankscreen.bmp	wfn2.bmp	blankscreen.bmp	circle.bmp
284	real_a	real_bottomleft_diff_a	8	483	18	mask.bmp	blankscreen.bmp	wfd3.bmp	blankscreen.bmp	circle.bmp
284	real_a	real_bottomleft_same_a	9	394	18	mask.bmp	blankscreen.bmp	wfn5.bmp	blankscreen.bmp	square.bmp
284	real_a	real_bottomright_diff_a	10	564	18	mask.bmp	blankscreen.bmp	wmd1.bmp	blankscreen.bmp	circle.bmp
284	real_a	real_bottomright_same_a	11	608	23	mask.bmp	blankscreen.bmp	wmn5.bmp	blankscreen.bmp	circle.bmp
284	real_a	real_bottomleft_diff_a	12	961	18	mask.bmp	blankscreen.bmp	wmn2.bmp	blankscreen.bmp	circle.bmp
284	real_a	real_topright_same_a	13	627	18	mask.bmp	blankscreen.bmp	wmn4.bmp	blankscreen.bmp	circle.bmp
284	real_a	real_bottomright_diff_a	14	611	23	mask.bmp	blankscreen.bmp	wmn3.bmp	blankscreen.bmp	square.bmp
284	real_a	real_topleft_diff_a	15	981	23	mask.bmp	blankscreen.bmp	wfd1.bmp	blankscreen.bmp	square.bmp
284	real_a	real_bottomright_same_a	16	438	23	mask.bmp	blankscreen.bmp	wmd5.bmp	blankscreen.bmp	square.bmp
284	real_a	real_topleft_diff_a	17	639	18	mask.bmp	blankscreen.bmp	wfn3.bmp	blankscreen.bmp	circle.bmp
284	real_a	real_topright_diff_a	18	742	23	mask.bmp	blankscreen.bmp	wmd3.bmp	blankscreen.bmp	square.bmp
284	real_a	real_topleft_diff_a	19	666	18	mask.bmp	blankscreen.bmp	wmd2.bmp	blankscreen.bmp	circle.bmp
284	real_a	real_topleft_same_a	20	529	23	mask.bmp	blankscreen.bmp	wfd4.bmp	blankscreen.bmp	square.bmp
284	real_b	real_topleft_diff_b	1	622	23	mask.bmp	blankscreen.bmp	wmn6.bmp	blankscreen.bmp	square.bmp
284	real_b	real_topleft_same_b	2	479	23	mask.bmp	blankscreen.bmp	wmd9.bmp	blankscreen.bmp	square.bmp
284	real_b	real_topleft_same_b	3	454	18	mask.bmp	blankscreen.bmp	wmn9.bmp	blankscreen.bmp	circle.bmp
284	real_b	real_bottomleft_diff_b	4	437	23	mask.bmp	blankscreen.bmp	wmn8.bmp	blankscreen.bmp	square.bmp
284	real_b	real_topleft_diff_b	5	590	18	mask.bmp	blankscreen.bmp	wmd8.bmp	blankscreen.bmp	circle.bmp
284	real_b	real_bottomleft_same_b	6	760	23	mask.bmp	blankscreen.bmp	wmd10.bmp	blankscreen.bmp	square.bmp
284	real_b	real_bottomleft_diff_b	7	674	23	mask.bmp	blankscreen.bmp	wfn7.bmp	blankscreen.bmp	square.bmp
284	real_b	real_bottomright_diff_b	8	489	18	mask.bmp	blankscreen.bmp	wfd6.bmp	blankscreen.bmp	circle.bmp
284	real_b	real_bottomright_same_b	9	599	23	mask.bmp	blankscreen.bmp	wfd10.bmp	blankscreen.bmp	square.bmp
284	real_b	real_bottomright_diff_b	10	505	23	mask.bmp	blankscreen.bmp	wmd7.bmp	blankscreen.bmp	square.bmp
284	real_b	real_bottomright_same_b	11	502	18	mask.bmp	blankscreen.bmp	wfn10.bmp	blankscreen.bmp	circle.bmp
284	real_b	real_topright_diff_b	12	549	18	mask.bmp	blankscreen.bmp	wfn6.bmp	blankscreen.bmp	circle.bmp
284	real_b	real_topright_diff_b	13	465	23	mask.bmp	blankscreen.bmp	wmn7.bmp	blankscreen.bmp	square.bmp
284	real_b	real_topright_same_b	14	504	23	mask.bmp	blankscreen.bmp	wfn9.bmp	blankscreen.bmp	square.bmp
284	real_b	real_bottomleft_diff_b	15	382	18	mask.bmp	blankscreen.bmp	wmd6.bmp	blankscreen.bmp	circle.bmp
284	real_b	real_bottomright_diff_b	16	577	23	mask.bmp	blankscreen.bmp	wfn8.bmp	blankscreen.bmp	circle.bmp
284	real_b	real_bottomleft_same_b	17	612	23	mask.bmp	blankscreen.bmp	wfd9.bmp	blankscreen.bmp	square.bmp
284	real_b	real_topright_diff_b	18	685	23	mask.bmp	blankscreen.bmp	wfd8.bmp	blankscreen.bmp	square.bmp
284	real_b	real_topright_same_b	19	484	18	mask.bmp	blankscreen.bmp	wmn10.bmp	blankscreen.bmp	circle.bmp
284	real_b	real_topleft_diff_b	20	602	23	mask.bmp	blankscreen.bmp	wfd7.bmp	blankscreen.bmp	square.bmp
284	real_c	real_topright_same_c	1	390	23	mask.bmp	blankscreen.bmp	wfn2.bmp	blankscreen.bmp	square.bmp
284	real_c	real_bottomright_diff_c	2	544	18	mask.bmp	blankscreen.bmp	wmd3.bmp	blankscreen.bmp	circle.bmp
284	real_c	real_topright_diff_c	3	588	23	mask.bmp	blankscreen.bmp	wfn5.bmp	blankscreen.bmp	square.bmp
284	real_c	real_topleft_same_c	4	622	23	mask.bmp	blankscreen.bmp	wfn1.bmp	blankscreen.bmp	square.bmp
284	real_c	real_topright_same_c	5	495	23	mask.bmp	blankscreen.bmp	wmd1.bmp	blankscreen.bmp	square.bmp
284	real_c	real_bottomright_same_c	6	453	23	mask.bmp	blankscreen.bmp	wmn2.bmp	blankscreen.bmp	square.bmp
284	real_c	real_bottomleft_diff_c	7	429	23	mask.bmp	blankscreen.bmp	wfd4.bmp	blankscreen.bmp	square.bmp
284	real_c	real_topleft_diff_c	8	462	23	mask.bmp	blankscreen.bmp	wfd3.bmp	blankscreen.bmp	square.bmp
284	real_c	real_bottomleft_diff_c	9	461	23	mask.bmp	blankscreen.bmp	wfn3.bmp	blankscreen.bmp	square.bmp
284	real_c	real_topleft_diff_c	10	469	18	mask.bmp	blankscreen.bmp	wmn5.bmp	blankscreen.bmp	circle.bmp
284	real_c	real_topleft_diff_c	11	381	18	mask.bmp	blankscreen.bmp	wfn4.bmp	blankscreen.bmp	circle.bmp
284	real_c	real_bottomright_same_c	12	344	23	mask.bmp	blankscreen.bmp	wmd2.bmp	blankscreen.bmp	square.bmp
284	real_c	real_bottomleft_diff_c	13	469	18	mask.bmp	blankscreen.bmp	wmd5.bmp	blankscreen.bmp	circle.bmp
284	real_c	real_topright_diff_c	14	452	18	mask.bmp	blankscreen.bmp	wmd4.bmp	blankscreen.bmp	square.bmp
284	real_c	real_bottomleft_same_c	15	765	23	mask.bmp	blankscreen.bmp	wmn1.bmp	blankscreen.bmp	circle.bmp
284	real_c	real_bottomleft_same_c	16	1016	18	mask.bmp	blankscreen.bmp	wfd2.bmp	blankscreen.bmp	circle.bmp
284	real_c	real_bottomright_diff_c	17	584	18	mask.bmp	blankscreen.bmp	wmn4.bmp	blankscreen.bmp	circle.bmp
284	real_c	real_topright_diff_c	18	578	18	mask.bmp	blankscreen.bmp	wmn3.bmp	blankscreen.bmp	circle.bmp
284	real_c	real_topleft_same_c	19	405	18	mask.bmp	blankscreen.bmp	wfd1.bmp	blankscreen.bmp	circle.bmp
284	real_c	real_bottomright_diff_c	20	655	18	mask.bmp	blankscreen.bmp	wfd5.bmp	blankscreen.bmp	circle.bmp
284	real_d	real_topleft_same_d	1	1099	18	mask.bmp	blankscreen.bmp	wmd6.bmp	blankscreen.bmp	circle.bmp
284	real_d	real_bottomright_diff_d	2	455	23	mask.bmp	blankscreen.bmp	wfn9.bmp	blankscreen.bmp	square.bmp
284	real_d	real_bottomleft_same_d	3	639	23	mask.bmp	blankscreen.bmp	wfn6.bmp	blankscreen.bmp	circle.bmp
284	real_d	real_bottomleft_diff_d	4	695	18	mask.bmp	blankscreen.bmp	wfd10.bmp	blankscreen.bmp	circle.bmp
284	real_d	real_bottomright_diff_d	5	740	23	mask.bmp	blankscreen.bmp	wmn10.bmp	blankscreen.bmp	square.bmp
284	real_d	real_topleft_diff_d	6	984	23	mask.bmp	blankscreen.bmp	wmn8.bmp	blankscreen.bmp	square.bmp
284	real_d	real_topright_same_d	7	817	18	mask.bmp	blankscreen.bmp	wmd7.bmp	blankscreen.bmp	circle.bmp
284	real_d	real_topleft_same_d	8	634	18	mask.bmp	blankscreen.bmp	wmn6.bmp	blankscreen.bmp	circle.bmp
284	real_d	real_topright_diff_d	9	482	23	mask.bmp	blankscreen.bmp	wfn8.bmp	blankscreen.bmp	square.bmp
284	real_d	real_bottomleft_diff_d	10	593	23	mask.bmp	blankscreen.bmp	wmn9.bmp	blankscreen.bmp	square.bmp
284	real_d	real_bottomright_same_d	11	531	23	mask.bmp	blankscreen.bmp	wfd7.bmp	blankscreen.bmp	square.bmp
284	real_d	real_bottomright_diff_d	12	536	18	mask.bmp	blankscreen.bmp	wfd8.bmp	blankscreen.bmp	circle.bmp
284	real_d	real_topright_diff_d	13	526	18	mask.bmp	blankscreen.bmp	wfd9.bmp	blankscreen.bmp	square.bmp
284	real_d	real_topleft_diff_d	14	730	18	mask.bmp	blankscreen.bmp	wmd9.bmp	blankscreen.bmp	circle.bmp
284	real_d	real_bottomright_same_d	15	1318	18	mask.bmp	blankscreen.bmp	wfn7.bmp	blankscreen.bmp	circle.bmp
284	real_d	real_topleft_diff_d	16	641	18	mask.bmp	blankscreen.bmp	wfn10.bmp	blankscreen.bmp	circle.bmp
284	real_d	real_topright_same_d	17	665	18	mask.bmp	blankscreen.bmp	wfd6.bmp	blankscreen.bmp	circle.bmp
284	real_d	real_bottomleft_same_d	18	712	18	mask.bmp	blankscreen.bmp	wmn7.bmp	blankscreen.bmp	circle.bmp
284	real_d	real_topright_diff_d	19	493	23	mask.bmp	blankscreen.bmp	wmd10.bmp	blankscreen.bmp	square.bmp
284	real_d	real_bottomleft_diff_d	20	635	18	mask.bmp	blankscreen.bmp	wmd8.bmp	blankscreen.bmp	circle.bmp
288	practice	practice_bottomright_same	1	1254	18	mask.bmp	blankscreen.bmp	practice8.jpg	blankscreen.bmp	circle.bmp
288	practice	practice_topright_same	2	891	23	mask.bmp	blankscreen.bmp	practice4.jpg	blankscreen.bmp	square.bmp
288	practice	practice_topright_same	3	568	18	mask.bmp	blankscreen.bmp	practice3.jpg	blankscreen.bmp	circle.bmp
288	practice	practice_bottomleft_diff	4	619	23	mask.bmp	blankscreen.bmp	practice11.jpg	blankscreen.bmp	square.bmp
288	practice	practice_topleft_diff	5	805	23	mask.bmp	blankscreen.bmp	practice9.jpg	blankscreen.bmp	square.bmp
288	practice	practice_bottomleft_same	6	53	18	mask.bmp	blankscreen.bmp	practice6.jpg	blankscreen.bmp	circle.bmp
288	practice	practice_bottomright_diff	7	798	18	mask.bmp	blankscreen.bmp	practice12.jpg	blankscreen.bmp	circle.bmp
288	practice	practice_topleft_same	8	704	18	mask.bmp	blankscreen.bmp	practice2.jpg	blankscreen.bmp	circle.bmp
288	practice	practice_bottomleft_same	9	406	23	mask.bmp	blankscreen.bmp	practice5.jpg	blankscreen.bmp	square.bmp
288	practice	practice_topleft_same	10	439	18	mask.bmp	blankscreen.bmp	practice1.jpg	blankscreen.bmp	circle.bmp
288	practice	practice_topright_diff	11	591	18	mask.bmp	blankscreen.bmp	practice10.jpg	blankscreen.bmp	circle.bmp
288	practice	practice_bottomright_same	12	617	23	mask.bmp	blankscreen.bmp	practice7.jpg	blankscreen.bmp	square.bmp
288	real_a	real_topleft_same_a	1	828	18	mask.bmp	blankscreen.bmp	wfd4.bmp	blankscreen.bmp	circle.bmp
288	real_a	real_topright_diff_a	2	756	18	mask.bmp	blankscreen.bmp	wfd2.bmp	blankscreen.bmp	circle.bmp
288	real_a	real_bottomleft_same_a	3	974	23	mask.bmp	blankscreen.bmp	wfn5.bmp	blankscreen.bmp	square.bmp
288	real_a	real_bottomright_same_a	4	664	18	mask.bmp	blankscreen.bmp	wmn5.bmp	blankscreen.bmp	circle.bmp
288	real_a	real_bottomright_diff_a	5	791	18	mask.bmp	blankscreen.bmp	wfn2.bmp	blankscreen.bmp	circle.bmp
288	real_a	real_bottomleft_same_a	6	696	18	mask.bmp	blankscreen.bmp	wmd4.bmp	blankscreen.bmp	circle.bmp
288	real_a	real_topright_same_a	7	686	18	mask.bmp	blankscreen.bmp	wmn4.bmp	blankscreen.bmp	circle.bmp
288	real_a	real_bottomleft_diff_a	8	540	23	mask.bmp	blankscreen.bmp	wfn1.bmp	blankscreen.bmp	square.bmp
288	real_a	real_topleft_diff_a	9	536	18	mask.bmp	blankscreen.bmp	wmd2.bmp	blankscreen.bmp	circle.bmp
288	real_a	real_topleft_diff_a	10	868	18	mask.bmp	blankscreen.bmp	wfd1.bmp	blankscreen.bmp	circle.bmp
288	real_a	real_bottomright_diff_a	11	627	18	mask.bmp	blankscreen.bmp	wmn3.bmp	blankscreen.bmp	circle.bmp
288	real_a	real_bottomleft_diff_a	12	468	18	mask.bmp	blankscreen.bmp	wfd3.bmp	blankscreen.bmp	circle.bmp
288	real_a	real_bottomright_diff_a	13	563	18	mask.bmp	blankscreen.bmp	wmd1.bmp	blankscreen.bmp	circle.bmp
288	real_a	real_topright_diff_a	14	526	23	mask.bmp	blankscreen.bmp	wmn1.bmp	blankscreen.bmp	square.bmp
288	real_a	real_topleft_same_a	15	691	23	mask.bmp	blankscreen.bmp	wfn4.bmp	blankscreen.bmp	square.bmp
288	real_a	real_topleft_diff_a	16	689	18	mask.bmp	blankscreen.bmp	wfn3.bmp	blankscreen.bmp	circle.bmp
288	real_a	real_topright_same_a	17	599	23	mask.bmp	blankscreen.bmp	wfd5.bmp	blankscreen.bmp	square.bmp
288	real_a	real_bottomright_same_a	18	568	18	mask.bmp	blankscreen.bmp	wmd5.bmp	blankscreen.bmp	circle.bmp
288	real_a	real_topright_diff_a	19	660	23	mask.bmp	blankscreen.bmp	wmd3.bmp	blankscreen.bmp	square.bmp
288	real_a	real_bottomleft_diff_a	20	971	18	mask.bmp	blankscreen.bmp	wmn2.bmp	blankscreen.bmp	square.bmp
288	real_b	real_topright_diff_b	1	623	23	mask.bmp	blankscreen.bmp	wfn6.bmp	blankscreen.bmp	square.bmp
288	real_b	real_bottomleft_diff_b	2	824	18	mask.bmp	blankscreen.bmp	wmn8.bmp	blankscreen.bmp	circle.bmp
288	real_b	real_bottomleft_diff_b	3	1104	23	mask.bmp	blankscreen.bmp	wmd6.bmp	blankscreen.bmp	square.bmp
288	real_b	real_bottomright_same_b	4	820	18	mask.bmp	blankscreen.bmp	wfn10.bmp	blankscreen.bmp	circle.bmp
288	real_b	real_bottomleft_same_b	5	957	18	mask.bmp	blankscreen.bmp	wfd9.bmp	blankscreen.bmp	circle.bmp
288	real_b	real_topleft_diff_b	6	543	23	mask.bmp	blankscreen.bmp	wfd7.bmp	blankscreen.bmp	square.bmp
288	real_b	real_bottomright_same_b	7	939	18	mask.bmp	blankscreen.bmp	wfd10.bmp	blankscreen.bmp	circle.bmp
288	real_b	real_bottomright_diff_b	8	566	18	mask.bmp	blankscreen.bmp	wmd7.bmp	blankscreen.bmp	circle.bmp
288	real_b	real_bottomleft_diff_b	9	609	18	mask.bmp	blankscreen.bmp	wfn7.bmp	blankscreen.bmp	circle.bmp
288	real_b	real_topleft_diff_b	10	563	23	mask.bmp	blankscreen.bmp	wmn6.bmp	blankscreen.bmp	square.bmp
288	real_b	real_topright_diff_b	11	758	18	mask.bmp	blankscreen.bmp	wfd8.bmp	blankscreen.bmp	circle.bmp
288	real_b	real_topright_diff_b	12	657	23	mask.bmp	blankscreen.bmp	wmn7.bmp	blankscreen.bmp	square.bmp
288	real_b	real_bottomleft_same_b	13	937	18	mask.bmp	blankscreen.bmp	wmd10.bmp	blankscreen.bmp	circle.bmp
288	real_b	real_topleft_same_b	14	675	18	mask.bmp	blankscreen.bmp	wmd9.bmp	blankscreen.bmp	circle.bmp
288	real_b	real_topright_same_b	15	538	23	mask.bmp	blankscreen.bmp	wmn10.bmp	blankscreen.bmp	square.bmp
288	real_b	real_topleft_diff_b	16	454	18	mask.bmp	blankscreen.bmp	wmd8.bmp	blankscreen.bmp	square.bmp
288	real_b	real_bottomright_diff_b	17	629	18	mask.bmp	blankscreen.bmp	wfd6.bmp	blankscreen.bmp	circle.bmp
288	real_b	real_topleft_same_b	18	478	23	mask.bmp	blankscreen.bmp	wmn9.bmp	blankscreen.bmp	square.bmp
288	real_b	real_bottomright_diff_b	19	709	18	mask.bmp	blankscreen.bmp	wfn8.bmp	blankscreen.bmp	circle.bmp
288	real_b	real_topright_same_b	20	474	23	mask.bmp	blankscreen.bmp	wfn9.bmp	blankscreen.bmp	square.bmp
288	real_c	real_bottomleft_diff_c	1	821	18	mask.bmp	blankscreen.bmp	wfd4.bmp	blankscreen.bmp	circle.bmp
288	real_c	real_topright_same_c	2	637	23	mask.bmp	blankscreen.bmp	wmd1.bmp	blankscreen.bmp	square.bmp
288	real_c	real_bottomleft_same_c	3	845	23	mask.bmp	blankscreen.bmp	wfd2.bmp	blankscreen.bmp	square.bmp
288	real_c	real_bottomright_same_c	4	724	23	mask.bmp	blankscreen.bmp	wmd2.bmp	blankscreen.bmp	square.bmp
288	real_c	real_bottomleft_same_c	5	584	23	mask.bmp	blankscreen.bmp	wmn1.bmp	blankscreen.bmp	square.bmp
288	real_c	real_bottomright_diff_c	6	595	18	mask.bmp	blankscreen.bmp	wfd5.bmp	blankscreen.bmp	circle.bmp
288	real_c	real_topleft_diff_c	7	709	18	mask.bmp	blankscreen.bmp	wfn4.bmp	blankscreen.bmp	circle.bmp
288	real_c	real_bottomright_same_c	8	730	23	mask.bmp	blankscreen.bmp	wmn2.bmp	blankscreen.bmp	square.bmp
288	real_c	real_topright_diff_c	9	1030	23	mask.bmp	blankscreen.bmp	wmd4.bmp	blankscreen.bmp	square.bmp
288	real_c	real_topleft_diff_c	10	405	18	mask.bmp	blankscreen.bmp	wmn5.bmp	blankscreen.bmp	circle.bmp
288	real_c	real_bottomright_diff_c	11	527	18	mask.bmp	blankscreen.bmp	wmn4.bmp	blankscreen.bmp	circle.bmp
288	real_c	real_bottomleft_diff_c	12	292	23	mask.bmp	blankscreen.bmp	wmd5.bmp	blankscreen.bmp	square.bmp
288	real_c	real_bottomright_diff_c	13	763	18	mask.bmp	blankscreen.bmp	wmd3.bmp	blankscreen.bmp	circle.bmp
288	real_c	real_topleft_diff_c	14	1413	23	mask.bmp	blankscreen.bmp	wfd3.bmp	blankscreen.bmp	circle.bmp
288	real_c	real_topright_diff_c	15	677	23	mask.bmp	blankscreen.bmp	wmn3.bmp	blankscreen.bmp	square.bmp
288	real_c	real_topright_diff_c	16	851	23	mask.bmp	blankscreen.bmp	wfn5.bmp	blankscreen.bmp	square.bmp
288	real_c	real_topright_same_c	17	578	18	mask.bmp	blankscreen.bmp	wfn2.bmp	blankscreen.bmp	circle.bmp
288	real_c	real_topleft_same_c	18	573	18	mask.bmp	blankscreen.bmp	wfd1.bmp	blankscreen.bmp	circle.bmp
288	real_c	real_bottomleft_diff_c	19	759	18	mask.bmp	blankscreen.bmp	wfn3.bmp	blankscreen.bmp	circle.bmp
288	real_c	real_topleft_same_c	20	1074	18	mask.bmp	blankscreen.bmp	wfn1.bmp	blankscreen.bmp	circle.bmp
288	real_d	real_bottomleft_diff_d	1	743	18	mask.bmp	blankscreen.bmp	wfd10.bmp	blankscreen.bmp	circle.bmp
288	real_d	real_topleft_same_d	2	642	23	mask.bmp	blankscreen.bmp	wmn6.bmp	blankscreen.bmp	square.bmp
288	real_d	real_topleft_diff_d	3	698	23	mask.bmp	blankscreen.bmp	wfn10.bmp	blankscreen.bmp	square.bmp
288	real_d	real_topleft_diff_d	4	832	18	mask.bmp	blankscreen.bmp	wmd9.bmp	blankscreen.bmp	circle.bmp
288	real_d	real_topright_same_d	5	840	18	mask.bmp	blankscreen.bmp	wmd7.bmp	blankscreen.bmp	circle.bmp
288	real_d	real_topright_diff_d	6	943	18	mask.bmp	blankscreen.bmp	wfd9.bmp	blankscreen.bmp	circle.bmp
288	real_d	real_bottomleft_diff_d	7	530	23	mask.bmp	blankscreen.bmp	wmn9.bmp	blankscreen.bmp	square.bmp
288	real_d	real_topleft_same_d	8	775	23	mask.bmp	blankscreen.bmp	wmd6.bmp	blankscreen.bmp	square.bmp
288	real_d	real_bottomleft_same_d	9	1801	23	mask.bmp	blankscreen.bmp	wmn7.bmp	blankscreen.bmp	square.bmp
288	real_d	real_topright_same_d	10	695	23	mask.bmp	blankscreen.bmp	wfd6.bmp	blankscreen.bmp	square.bmp
288	real_d	real_bottomright_same_d	11	757	23	mask.bmp	blankscreen.bmp	wfd7.bmp	blankscreen.bmp	square.bmp
288	real_d	real_bottomright_diff_d	12	647	23	mask.bmp	blankscreen.bmp	wfn9.bmp	blankscreen.bmp	square.bmp
288	real_d	real_bottomright_diff_d	13	535	23	mask.bmp	blankscreen.bmp	wfd8.bmp	blankscreen.bmp	square.bmp
288	real_d	real_bottomleft_diff_d	14	588	23	mask.bmp	blankscreen.bmp	wmd8.bmp	blankscreen.bmp	square.bmp
288	real_d	real_topleft_diff_d	15	822	18	mask.bmp	blankscreen.bmp	wmn8.bmp	blankscreen.bmp	circle.bmp
288	real_d	real_topright_diff_d	16	662	18	mask.bmp	blankscreen.bmp	wmd10.bmp	blankscreen.bmp	circle.bmp
288	real_d	real_bottomleft_same_d	17	429	23	mask.bmp	blankscreen.bmp	wfn6.bmp	blankscreen.bmp	square.bmp
288	real_d	real_bottomright_diff_d	18	846	18	mask.bmp	blankscreen.bmp	wmn10.bmp	blankscreen.bmp	circle.bmp
288	real_d	real_bottomright_same_d	19	717	18	mask.bmp	blankscreen.bmp	wfn7.bmp	blankscreen.bmp	circle.bmp
288	real_d	real_topright_diff_d	20	690	18	mask.bmp	blankscreen.bmp	wfn8.bmp	blankscreen.bmp	circle.bmp
291	practice	practice_topright_diff	1	1071	18	mask.bmp	blankscreen.bmp	practice10.jpg	blankscreen.bmp	square.bmp
291	practice	practice_bottomleft_diff	2	908	18	mask.bmp	blankscreen.bmp	practice11.jpg	blankscreen.bmp	circle.bmp
291	practice	practice_topright_same	3	705	18	mask.bmp	blankscreen.bmp	practice3.jpg	blankscreen.bmp	circle.bmp
291	practice	practice_bottomleft_same	4	606	23	mask.bmp	blankscreen.bmp	practice5.jpg	blankscreen.bmp	square.bmp
291	practice	practice_topleft_same	5	527	18	mask.bmp	blankscreen.bmp	practice1.jpg	blankscreen.bmp	circle.bmp
291	practice	practice_bottomright_same	6	1076	18	mask.bmp	blankscreen.bmp	practice7.jpg	blankscreen.bmp	circle.bmp
291	practice	practice_bottomright_same	7	505	23	mask.bmp	blankscreen.bmp	practice8.jpg	blankscreen.bmp	square.bmp
291	practice	practice_topright_same	8	734	23	mask.bmp	blankscreen.bmp	practice4.jpg	blankscreen.bmp	square.bmp
291	practice	practice_topleft_diff	9	739	18	mask.bmp	blankscreen.bmp	practice9.jpg	blankscreen.bmp	circle.bmp
291	practice	practice_topleft_same	10	574	23	mask.bmp	blankscreen.bmp	practice2.jpg	blankscreen.bmp	square.bmp
291	practice	practice_bottomleft_same	11	521	23	mask.bmp	blankscreen.bmp	practice6.jpg	blankscreen.bmp	square.bmp
291	practice	practice_bottomright_diff	12	893	18	mask.bmp	blankscreen.bmp	practice12.jpg	blankscreen.bmp	square.bmp
291	real_a	real_topleft_same_a	1	743	18	mask.bmp	blankscreen.bmp	wfn4.bmp	blankscreen.bmp	circle.bmp
291	real_a	real_bottomleft_same_a	2	474	18	mask.bmp	blankscreen.bmp	wmd4.bmp	blankscreen.bmp	circle.bmp
291	real_a	real_bottomright_same_a	3	329	23	mask.bmp	blankscreen.bmp	wmn5.bmp	blankscreen.bmp	square.bmp
291	real_a	real_topright_diff_a	4	447	18	mask.bmp	blankscreen.bmp	wmd3.bmp	blankscreen.bmp	circle.bmp
291	real_a	real_topleft_same_a	5	447	23	mask.bmp	blankscreen.bmp	wfd4.bmp	blankscreen.bmp	square.bmp
291	real_a	real_topright_same_a	6	527	23	mask.bmp	blankscreen.bmp	wfd5.bmp	blankscreen.bmp	circle.bmp
291	real_a	real_topleft_diff_a	7	645	23	mask.bmp	blankscreen.bmp	wfn3.bmp	blankscreen.bmp	square.bmp
291	real_a	real_bottomright_diff_a	8	788	23	mask.bmp	blankscreen.bmp	wmn3.bmp	blankscreen.bmp	square.bmp
291	real_a	real_topleft_diff_a	9	630	23	mask.bmp	blankscreen.bmp	wmd2.bmp	blankscreen.bmp	square.bmp
291	real_a	real_bottomright_diff_a	10	510	23	mask.bmp	blankscreen.bmp	wfn2.bmp	blankscreen.bmp	square.bmp
291	real_a	real_bottomleft_diff_a	11	468	18	mask.bmp	blankscreen.bmp	wfn1.bmp	blankscreen.bmp	circle.bmp
291	real_a	real_topright_diff_a	12	475	23	mask.bmp	blankscreen.bmp	wfd2.bmp	blankscreen.bmp	square.bmp
291	real_a	real_bottomright_diff_a	13	538	18	mask.bmp	blankscreen.bmp	wmd1.bmp	blankscreen.bmp	circle.bmp
291	real_a	real_topleft_diff_a	14	838	23	mask.bmp	blankscreen.bmp	wfd1.bmp	blankscreen.bmp	square.bmp
291	real_a	real_bottomright_same_a	15	1181	18	mask.bmp	blankscreen.bmp	wmd5.bmp	blankscreen.bmp	circle.bmp
291	real_a	real_bottomleft_diff_a	16	463	18	mask.bmp	blankscreen.bmp	wfd3.bmp	blankscreen.bmp	circle.bmp
291	real_a	real_bottomleft_diff_a	17	590	18	mask.bmp	blankscreen.bmp	wmn2.bmp	blankscreen.bmp	circle.bmp
291	real_a	real_bottomleft_same_a	18	416	18	mask.bmp	blankscreen.bmp	wfn5.bmp	blankscreen.bmp	circle.bmp
291	real_a	real_topright_same_a	19	314	23	mask.bmp	blankscreen.bmp	wmn4.bmp	blankscreen.bmp	square.bmp
291	real_a	real_topright_diff_a	20	568	23	mask.bmp	blankscreen.bmp	wmn1.bmp	blankscreen.bmp	square.bmp
291	real_b	real_bottomright_diff_b	1	831	18	mask.bmp	blankscreen.bmp	wmd7.bmp	blankscreen.bmp	circle.bmp
291	real_b	real_bottomright_same_b	2	879	18	mask.bmp	blankscreen.bmp	wfd10.bmp	blankscreen.bmp	circle.bmp
291	real_b	real_bottomleft_same_b	3	686	23	mask.bmp	blankscreen.bmp	wfd9.bmp	blankscreen.bmp	square.bmp
291	real_b	real_bottomleft_same_b	4	643	18	mask.bmp	blankscreen.bmp	wmd10.bmp	blankscreen.bmp	circle.bmp
291	real_b	real_topleft_diff_b	5	939	23	mask.bmp	blankscreen.bmp	wfd7.bmp	blankscreen.bmp	square.bmp
291	real_b	real_bottomleft_diff_b	6	638	23	mask.bmp	blankscreen.bmp	wmn8.bmp	blankscreen.bmp	square.bmp
291	real_b	real_topright_same_b	7	549	23	mask.bmp	blankscreen.bmp	wmn10.bmp	blankscreen.bmp	square.bmp
291	real_b	real_topright_diff_b	8	473	18	mask.bmp	blankscreen.bmp	wmn7.bmp	blankscreen.bmp	circle.bmp
291	real_b	real_topleft_same_b	9	728	18	mask.bmp	blankscreen.bmp	wmd9.bmp	blankscreen.bmp	circle.bmp
291	real_b	real_topleft_same_b	10	365	18	mask.bmp	blankscreen.bmp	wmn9.bmp	blankscreen.bmp	circle.bmp
291	real_b	real_bottomleft_diff_b	11	593	18	mask.bmp	blankscreen.bmp	wfn7.bmp	blankscreen.bmp	circle.bmp
291	real_b	real_bottomleft_diff_b	12	867	23	mask.bmp	blankscreen.bmp	wmd6.bmp	blankscreen.bmp	square.bmp
291	real_b	real_topright_diff_b	13	1017	18	mask.bmp	blankscreen.bmp	wfn6.bmp	blankscreen.bmp	circle.bmp
291	real_b	real_bottomright_same_b	14	577	18	mask.bmp	blankscreen.bmp	wfn10.bmp	blankscreen.bmp	circle.bmp
291	real_b	real_topleft_diff_b	15	700	23	mask.bmp	blankscreen.bmp	wmd8.bmp	blankscreen.bmp	square.bmp
291	real_b	real_topleft_diff_b	16	1202	18	mask.bmp	blankscreen.bmp	wmn6.bmp	blankscreen.bmp	circle.bmp
291	real_b	real_topright_same_b	17	514	18	mask.bmp	blankscreen.bmp	wfn9.bmp	blankscreen.bmp	circle.bmp
291	real_b	real_topright_diff_b	18	599	23	mask.bmp	blankscreen.bmp	wfd8.bmp	blankscreen.bmp	square.bmp
291	real_b	real_bottomright_diff_b	19	633	23	mask.bmp	blankscreen.bmp	wfd6.bmp	blankscreen.bmp	square.bmp
291	real_b	real_bottomright_diff_b	20	393	18	mask.bmp	blankscreen.bmp	wfn8.bmp	blankscreen.bmp	circle.bmp
291	real_c	real_topright_diff_c	1	773	23	mask.bmp	blankscreen.bmp	wmn3.bmp	blankscreen.bmp	square.bmp
291	real_c	real_bottomleft_diff_c	2	487	23	mask.bmp	blankscreen.bmp	wfd4.bmp	blankscreen.bmp	square.bmp
291	real_c	real_bottomright_same_c	3	461	18	mask.bmp	blankscreen.bmp	wmn2.bmp	blankscreen.bmp	circle.bmp
291	real_c	real_topleft_diff_c	4	781	23	mask.bmp	blankscreen.bmp	wfd3.bmp	blankscreen.bmp	circle.bmp
291	real_c	real_topright_diff_c	5	727	23	mask.bmp	blankscreen.bmp	wfn5.bmp	blankscreen.bmp	square.bmp
291	real_c	real_topright_diff_c	6	475	18	mask.bmp	blankscreen.bmp	wmd4.bmp	blankscreen.bmp	circle.bmp
291	real_c	real_topleft_diff_c	7	602	18	mask.bmp	blankscreen.bmp	wmn5.bmp	blankscreen.bmp	circle.bmp
291	real_c	real_bottomleft_same_c	8	1604	18	mask.bmp	blankscreen.bmp	wmn1.bmp	blankscreen.bmp	circle.bmp
291	real_c	real_topleft_same_c	9	435	23	mask.bmp	blankscreen.bmp	wfd1.bmp	blankscreen.bmp	square.bmp
291	real_c	real_topright_same_c	10	852	18	mask.bmp	blankscreen.bmp	wmd1.bmp	blankscreen.bmp	circle.bmp
291	real_c	real_topleft_diff_c	11	547	18	mask.bmp	blankscreen.bmp	wfn4.bmp	blankscreen.bmp	circle.bmp
291	real_c	real_bottomright_same_c	12	423	18	mask.bmp	blankscreen.bmp	wmd2.bmp	blankscreen.bmp	circle.bmp
291	real_c	real_bottomright_diff_c	13	616	18	mask.bmp	blankscreen.bmp	wfd5.bmp	blankscreen.bmp	circle.bmp
291	real_c	real_bottomleft_diff_c	14	498	18	mask.bmp	blankscreen.bmp	wfn3.bmp	blankscreen.bmp	circle.bmp
291	real_c	real_topright_same_c	15	408	18	mask.bmp	blankscreen.bmp	wfn2.bmp	blankscreen.bmp	circle.bmp
291	real_c	real_bottomleft_same_c	16	402	18	mask.bmp	blankscreen.bmp	wfd2.bmp	blankscreen.bmp	circle.bmp
291	real_c	real_bottomright_diff_c	17	412	18	mask.bmp	blankscreen.bmp	wmn4.bmp	blankscreen.bmp	square.bmp
291	real_c	real_bottomright_diff_c	18	686	23	mask.bmp	blankscreen.bmp	wmd3.bmp	blankscreen.bmp	square.bmp
291	real_c	real_topleft_same_c	19	436	23	mask.bmp	blankscreen.bmp	wfn1.bmp	blankscreen.bmp	square.bmp
291	real_c	real_bottomleft_diff_c	20	357	23	mask.bmp	blankscreen.bmp	wmd5.bmp	blankscreen.bmp	square.bmp
291	real_d	real_topright_diff_d	1	416	18	mask.bmp	blankscreen.bmp	wmd10.bmp	blankscreen.bmp	circle.bmp
291	real_d	real_topright_diff_d	2	458	18	mask.bmp	blankscreen.bmp	wfd9.bmp	blankscreen.bmp	circle.bmp
291	real_d	real_bottomleft_diff_d	3	690	18	mask.bmp	blankscreen.bmp	wmn9.bmp	blankscreen.bmp	circle.bmp
291	real_d	real_bottomleft_same_d	4	520	23	mask.bmp	blankscreen.bmp	wmn7.bmp	blankscreen.bmp	square.bmp
291	real_d	real_bottomright_diff_d	5	444	23	mask.bmp	blankscreen.bmp	wfd8.bmp	blankscreen.bmp	square.bmp
291	real_d	real_bottomleft_diff_d	6	397	18	mask.bmp	blankscreen.bmp	wfd10.bmp	blankscreen.bmp	circle.bmp
291	real_d	real_bottomleft_diff_d	7	423	23	mask.bmp	blankscreen.bmp	wmd8.bmp	blankscreen.bmp	square.bmp
291	real_d	real_bottomright_same_d	8	704	23	mask.bmp	blankscreen.bmp	wfd7.bmp	blankscreen.bmp	circle.bmp
291	real_d	real_topleft_diff_d	9	685	18	mask.bmp	blankscreen.bmp	wfn10.bmp	blankscreen.bmp	circle.bmp
291	real_d	real_topleft_diff_d	10	388	18	mask.bmp	blankscreen.bmp	wmn8.bmp	blankscreen.bmp	circle.bmp
291	real_d	real_bottomleft_same_d	11	446	18	mask.bmp	blankscreen.bmp	wfn6.bmp	blankscreen.bmp	circle.bmp
291	real_d	real_topright_same_d	12	606	18	mask.bmp	blankscreen.bmp	wfd6.bmp	blankscreen.bmp	circle.bmp
291	real_d	real_topright_diff_d	13	560	18	mask.bmp	blankscreen.bmp	wfn8.bmp	blankscreen.bmp	circle.bmp
291	real_d	real_bottomright_diff_d	14	339	18	mask.bmp	blankscreen.bmp	wfn9.bmp	blankscreen.bmp	circle.bmp
291	real_d	real_topleft_same_d	15	392	18	mask.bmp	blankscreen.bmp	wmn6.bmp	blankscreen.bmp	circle.bmp
291	real_d	real_topleft_diff_d	16	474	18	mask.bmp	blankscreen.bmp	wmd9.bmp	blankscreen.bmp	circle.bmp
291	real_d	real_topright_same_d	17	489	18	mask.bmp	blankscreen.bmp	wmd7.bmp	blankscreen.bmp	circle.bmp
291	real_d	real_bottomright_same_d	18	496	23	mask.bmp	blankscreen.bmp	wfn7.bmp	blankscreen.bmp	square.bmp
291	real_d	real_topleft_same_d	19	390	18	mask.bmp	blankscreen.bmp	wmd6.bmp	blankscreen.bmp	square.bmp
291	real_d	real_bottomright_diff_d	20	640	23	mask.bmp	blankscreen.bmp	wmn10.bmp	blankscreen.bmp	square.bmp
294	practice	practice_bottomleft_same	1	2647	23	mask.bmp	blankscreen.bmp	practice6.jpg	blankscreen.bmp	square.bmp
294	practice	practice_topleft_same	2	1681	18	mask.bmp	blankscreen.bmp	practice1.jpg	blankscreen.bmp	circle.bmp
294	practice	practice_topleft_same	3	900	18	mask.bmp	blankscreen.bmp	practice2.jpg	blankscreen.bmp	circle.bmp
294	practice	practice_topleft_diff	4	1769	23	mask.bmp	blankscreen.bmp	practice9.jpg	blankscreen.bmp	square.bmp
294	practice	practice_bottomleft_same	5	1209	18	mask.bmp	blankscreen.bmp	practice5.jpg	blankscreen.bmp	circle.bmp
294	practice	practice_bottomright_same	6	1216	23	mask.bmp	blankscreen.bmp	practice8.jpg	blankscreen.bmp	square.bmp
294	practice	practice_bottomleft_diff	7	1240	23	mask.bmp	blankscreen.bmp	practice11.jpg	blankscreen.bmp	square.bmp
294	practice	practice_topright_same	8	958	18	mask.bmp	blankscreen.bmp	practice3.jpg	blankscreen.bmp	circle.bmp
294	practice	practice_bottomright_diff	9	833	23	mask.bmp	blankscreen.bmp	practice12.jpg	blankscreen.bmp	square.bmp
294	practice	practice_bottomright_same	10	800	23	mask.bmp	blankscreen.bmp	practice7.jpg	blankscreen.bmp	square.bmp
294	practice	practice_topright_diff	11	1241	18	mask.bmp	blankscreen.bmp	practice10.jpg	blankscreen.bmp	circle.bmp
294	practice	practice_topright_same	12	791	23	mask.bmp	blankscreen.bmp	practice4.jpg	blankscreen.bmp	square.bmp
294	real_a	real_bottomleft_same_a	1	893	18	mask.bmp	blankscreen.bmp	wfn5.bmp	blankscreen.bmp	circle.bmp
294	real_a	real_bottomright_same_a	2	466	23	mask.bmp	blankscreen.bmp	wmn5.bmp	blankscreen.bmp	square.bmp
294	real_a	real_topleft_same_a	3	906	18	mask.bmp	blankscreen.bmp	wfn4.bmp	blankscreen.bmp	circle.bmp
294	real_a	real_bottomright_diff_a	4	918	18	mask.bmp	blankscreen.bmp	wfn2.bmp	blankscreen.bmp	circle.bmp
294	real_a	real_bottomleft_diff_a	5	731	23	mask.bmp	blankscreen.bmp	wmn2.bmp	blankscreen.bmp	square.bmp
294	real_a	real_bottomleft_diff_a	6	935	18	mask.bmp	blankscreen.bmp	wfd3.bmp	blankscreen.bmp	circle.bmp
294	real_a	real_bottomleft_diff_a	7	666	23	mask.bmp	blankscreen.bmp	wfn1.bmp	blankscreen.bmp	square.bmp
294	real_a	real_bottomright_diff_a	8	745	23	mask.bmp	blankscreen.bmp	wmd1.bmp	blankscreen.bmp	square.bmp
294	real_a	real_bottomright_same_a	9	1374	23	mask.bmp	blankscreen.bmp	wmd5.bmp	blankscreen.bmp	square.bmp
294	real_a	real_topright_diff_a	10	2117	23	mask.bmp	blankscreen.bmp	wmn1.bmp	blankscreen.bmp	square.bmp
294	real_a	real_topleft_diff_a	11	1118	23	mask.bmp	blankscreen.bmp	wfd1.bmp	blankscreen.bmp	square.bmp
294	real_a	real_bottomleft_same_a	12	994	18	mask.bmp	blankscreen.bmp	wmd4.bmp	blankscreen.bmp	circle.bmp
294	real_a	real_topright_same_a	13	1202	23	mask.bmp	blankscreen.bmp	wfd5.bmp	blankscreen.bmp	square.bmp
294	real_a	real_topright_diff_a	14	1010	18	mask.bmp	blankscreen.bmp	wmd3.bmp	blankscreen.bmp	circle.bmp
294	real_a	real_topright_same_a	15	995	23	mask.bmp	blankscreen.bmp	wmn4.bmp	blankscreen.bmp	square.bmp
294	real_a	real_topleft_diff_a	16	1147	23	mask.bmp	blankscreen.bmp	wfn3.bmp	blankscreen.bmp	square.bmp
294	real_a	real_topright_diff_a	17	749	18	mask.bmp	blankscreen.bmp	wfd2.bmp	blankscreen.bmp	circle.bmp
294	real_a	real_bottomright_diff_a	18	1417	18	mask.bmp	blankscreen.bmp	wmn3.bmp	blankscreen.bmp	circle.bmp
294	real_a	real_topleft_diff_a	19	2064	23	mask.bmp	blankscreen.bmp	wmd2.bmp	blankscreen.bmp	square.bmp
294	real_a	real_topleft_same_a	20	1699	23	mask.bmp	blankscreen.bmp	wfd4.bmp	blankscreen.bmp	square.bmp
294	real_b	real_bottomleft_same_b	1	720	23	mask.bmp	blankscreen.bmp	wmd10.bmp	blankscreen.bmp	square.bmp
294	real_b	real_topleft_diff_b	2	1509	18	mask.bmp	blankscreen.bmp	wmd8.bmp	blankscreen.bmp	circle.bmp
294	real_b	real_topright_diff_b	3	679	23	mask.bmp	blankscreen.bmp	wmn7.bmp	blankscreen.bmp	square.bmp
294	real_b	real_bottomleft_diff_b	4	782	18	mask.bmp	blankscreen.bmp	wmn8.bmp	blankscreen.bmp	circle.bmp
294	real_b	real_topleft_diff_b	5	1240	23	mask.bmp	blankscreen.bmp	wfd7.bmp	blankscreen.bmp	square.bmp
294	real_b	real_bottomright_diff_b	6	950	23	mask.bmp	blankscreen.bmp	wmd7.bmp	blankscreen.bmp	square.bmp
294	real_b	real_bottomright_same_b	7	816	23	mask.bmp	blankscreen.bmp	wfn10.bmp	blankscreen.bmp	square.bmp
294	real_b	real_bottomright_diff_b	8	897	18	mask.bmp	blankscreen.bmp	wfn8.bmp	blankscreen.bmp	circle.bmp
294	real_b	real_bottomright_diff_b	9	830	23	mask.bmp	blankscreen.bmp	wfd6.bmp	blankscreen.bmp	circle.bmp
294	real_b	real_bottomleft_same_b	10	998	18	mask.bmp	blankscreen.bmp	wfd9.bmp	blankscreen.bmp	circle.bmp
294	real_b	real_topright_diff_b	11	919	18	mask.bmp	blankscreen.bmp	wfd8.bmp	blankscreen.bmp	circle.bmp
294	real_b	real_topright_same_b	12	731	18	mask.bmp	blankscreen.bmp	wmn10.bmp	blankscreen.bmp	circle.bmp
294	real_b	real_topright_same_b	13	423	18	mask.bmp	blankscreen.bmp	wfn9.bmp	blankscreen.bmp	circle.bmp
294	real_b	real_topleft_diff_b	14	568	18	mask.bmp	blankscreen.bmp	wmn6.bmp	blankscreen.bmp	circle.bmp
294	real_b	real_topleft_same_b	15	716	23	mask.bmp	blankscreen.bmp	wmd9.bmp	blankscreen.bmp	square.bmp
294	real_b	real_bottomleft_diff_b	16	912	18	mask.bmp	blankscreen.bmp	wmd6.bmp	blankscreen.bmp	circle.bmp
294	real_b	real_topright_diff_b	17	1021	18	mask.bmp	blankscreen.bmp	wfn6.bmp	blankscreen.bmp	circle.bmp
294	real_b	real_bottomleft_diff_b	18	677	23	mask.bmp	blankscreen.bmp	wfn7.bmp	blankscreen.bmp	square.bmp
294	real_b	real_topleft_same_b	19	1035	23	mask.bmp	blankscreen.bmp	wmn9.bmp	blankscreen.bmp	square.bmp
294	real_b	real_bottomright_same_b	20	626	23	mask.bmp	blankscreen.bmp	wfd10.bmp	blankscreen.bmp	square.bmp
294	real_c	real_topright_same_c	1	1267	18	mask.bmp	blankscreen.bmp	wfn2.bmp	blankscreen.bmp	circle.bmp
294	real_c	real_bottomleft_diff_c	2	681	23	mask.bmp	blankscreen.bmp	wfn3.bmp	blankscreen.bmp	square.bmp
294	real_c	real_bottomright_same_c	3	695	18	mask.bmp	blankscreen.bmp	wmd2.bmp	blankscreen.bmp	circle.bmp
294	real_c	real_bottomleft_same_c	4	629	23	mask.bmp	blankscreen.bmp	wmn1.bmp	blankscreen.bmp	square.bmp
294	real_c	real_bottomright_diff_c	5	957	23	mask.bmp	blankscreen.bmp	wmn4.bmp	blankscreen.bmp	square.bmp
294	real_c	real_bottomleft_diff_c	6	863	18	mask.bmp	blankscreen.bmp	wfd4.bmp	blankscreen.bmp	circle.bmp
294	real_c	real_topleft_diff_c	7	726	23	mask.bmp	blankscreen.bmp	wmn5.bmp	blankscreen.bmp	square.bmp
294	real_c	real_topright_diff_c	8	746	18	mask.bmp	blankscreen.bmp	wmd4.bmp	blankscreen.bmp	circle.bmp
294	real_c	real_bottomright_same_c	9	734	23	mask.bmp	blankscreen.bmp	wmn2.bmp	blankscreen.bmp	square.bmp
294	real_c	real_bottomleft_same_c	10	722	18	mask.bmp	blankscreen.bmp	wfd2.bmp	blankscreen.bmp	circle.bmp
294	real_c	real_bottomright_diff_c	11	814	23	mask.bmp	blankscreen.bmp	wmd3.bmp	blankscreen.bmp	square.bmp
294	real_c	real_topleft_same_c	12	583	18	mask.bmp	blankscreen.bmp	wfn1.bmp	blankscreen.bmp	circle.bmp
294	real_c	real_topleft_diff_c	13	913	23	mask.bmp	blankscreen.bmp	wfn4.bmp	blankscreen.bmp	square.bmp
294	real_c	real_topright_diff_c	14	1710	18	mask.bmp	blankscreen.bmp	wfn5.bmp	blankscreen.bmp	circle.bmp
294	real_c	real_topleft_diff_c	15	679	18	mask.bmp	blankscreen.bmp	wfd3.bmp	blankscreen.bmp	circle.bmp
294	real_c	real_topright_diff_c	16	654	18	mask.bmp	blankscreen.bmp	wmn3.bmp	blankscreen.bmp	circle.bmp
294	real_c	real_bottomright_diff_c	17	566	18	mask.bmp	blankscreen.bmp	wfd5.bmp	blankscreen.bmp	circle.bmp
294	real_c	real_topright_same_c	18	513	18	mask.bmp	blankscreen.bmp	wmd1.bmp	blankscreen.bmp	circle.bmp
294	real_c	real_bottomleft_diff_c	19	751	23	mask.bmp	blankscreen.bmp	wmd5.bmp	blankscreen.bmp	square.bmp
294	real_c	real_topleft_same_c	20	954	18	mask.bmp	blankscreen.bmp	wfd1.bmp	blankscreen.bmp	circle.bmp
294	real_d	real_bottomleft_same_d	1	1565	23	mask.bmp	blankscreen.bmp	wmn7.bmp	blankscreen.bmp	square.bmp
294	real_d	real_bottomright_diff_d	2	509	18	mask.bmp	blankscreen.bmp	wmn10.bmp	blankscreen.bmp	circle.bmp
294	real_d	real_bottomright_diff_d	3	682	23	mask.bmp	blankscreen.bmp	wfn9.bmp	blankscreen.bmp	square.bmp
294	real_d	real_topright_diff_d	4	1200	23	mask.bmp	blankscreen.bmp	wmd10.bmp	blankscreen.bmp	square.bmp
294	real_d	real_bottomleft_diff_d	5	697	18	mask.bmp	blankscreen.bmp	wfd10.bmp	blankscreen.bmp	circle.bmp
294	real_d	real_topright_diff_d	6	718	23	mask.bmp	blankscreen.bmp	wfn8.bmp	blankscreen.bmp	square.bmp
294	real_d	real_topleft_diff_d	7	939	18	mask.bmp	blankscreen.bmp	wmd9.bmp	blankscreen.bmp	circle.bmp
294	real_d	real_bottomleft_diff_d	8	1094	18	mask.bmp	blankscreen.bmp	wmd8.bmp	blankscreen.bmp	circle.bmp
294	real_d	real_topright_same_d	9	459	23	mask.bmp	blankscreen.bmp	wmd7.bmp	blankscreen.bmp	square.bmp
294	real_d	real_bottomright_diff_d	10	1666	18	mask.bmp	blankscreen.bmp	wfd8.bmp	blankscreen.bmp	circle.bmp
294	real_d	real_topright_diff_d	11	742	18	mask.bmp	blankscreen.bmp	wfd9.bmp	blankscreen.bmp	circle.bmp
294	real_d	real_topleft_same_d	12	1026	23	mask.bmp	blankscreen.bmp	wmd6.bmp	blankscreen.bmp	square.bmp
294	real_d	real_topleft_diff_d	13	1153	23	mask.bmp	blankscreen.bmp	wmn8.bmp	blankscreen.bmp	square.bmp
294	real_d	real_bottomright_same_d	14	835	18	mask.bmp	blankscreen.bmp	wfd7.bmp	blankscreen.bmp	circle.bmp
294	real_d	real_topleft_same_d	15	1291	23	mask.bmp	blankscreen.bmp	wmn6.bmp	blankscreen.bmp	square.bmp
294	real_d	real_bottomright_same_d	16	991	23	mask.bmp	blankscreen.bmp	wfn7.bmp	blankscreen.bmp	square.bmp
294	real_d	real_bottomleft_same_d	17	496	18	mask.bmp	blankscreen.bmp	wfn6.bmp	blankscreen.bmp	circle.bmp
294	real_d	real_bottomleft_diff_d	18	862	18	mask.bmp	blankscreen.bmp	wmn9.bmp	blankscreen.bmp	circle.bmp
294	real_d	real_topleft_diff_d	19	669	23	mask.bmp	blankscreen.bmp	wfn10.bmp	blankscreen.bmp	square.bmp
294	real_d	real_topright_same_d	20	675	23	mask.bmp	blankscreen.bmp	wfd6.bmp	blankscreen.bmp	square.bmp
300	practice	practice_topleft_same	1	1640	18	mask.bmp	blankscreen.bmp	practice2.jpg	blankscreen.bmp	circle.bmp
300	practice	practice_topleft_same	2	948	23	mask.bmp	blankscreen.bmp	practice1.jpg	blankscreen.bmp	square.bmp
300	practice	practice_topleft_diff	3	1559	18	mask.bmp	blankscreen.bmp	practice9.jpg	blankscreen.bmp	circle.bmp
300	practice	practice_topright_same	4	984	18	mask.bmp	blankscreen.bmp	practice3.jpg	blankscreen.bmp	circle.bmp
300	practice	practice_bottomright_same	5	937	18	mask.bmp	blankscreen.bmp	practice7.jpg	blankscreen.bmp	circle.bmp
300	practice	practice_bottomleft_diff	6	1045	18	mask.bmp	blankscreen.bmp	practice11.jpg	blankscreen.bmp	circle.bmp
300	practice	practice_bottomright_diff	7	739	23	mask.bmp	blankscreen.bmp	practice12.jpg	blankscreen.bmp	square.bmp
300	practice	practice_bottomleft_same	8	567	18	mask.bmp	blankscreen.bmp	practice6.jpg	blankscreen.bmp	circle.bmp
300	practice	practice_bottomleft_same	9	738	18	mask.bmp	blankscreen.bmp	practice5.jpg	blankscreen.bmp	circle.bmp
300	practice	practice_bottomright_same	10	726	18	mask.bmp	blankscreen.bmp	practice8.jpg	blankscreen.bmp	circle.bmp
300	practice	practice_topright_diff	11	650	23	mask.bmp	blankscreen.bmp	practice10.jpg	blankscreen.bmp	square.bmp
300	practice	practice_topright_same	12	834	23	mask.bmp	blankscreen.bmp	practice4.jpg	blankscreen.bmp	square.bmp
300	real_a	real_bottomleft_diff_a	1	798	18	mask.bmp	blankscreen.bmp	wfd3.bmp	blankscreen.bmp	circle.bmp
300	real_a	real_bottomleft_diff_a	2	640	23	mask.bmp	blankscreen.bmp	wfn1.bmp	blankscreen.bmp	square.bmp
300	real_a	real_bottomright_diff_a	3	32	18	mask.bmp	blankscreen.bmp	wmd1.bmp	blankscreen.bmp	circle.bmp
300	real_a	real_bottomright_same_a	4	682	18	mask.bmp	blankscreen.bmp	wmn5.bmp	blankscreen.bmp	circle.bmp
300	real_a	real_topleft_diff_a	5	584	23	mask.bmp	blankscreen.bmp	wmd2.bmp	blankscreen.bmp	circle.bmp
300	real_a	real_topright_same_a	6	547	18	mask.bmp	blankscreen.bmp	wmn4.bmp	blankscreen.bmp	circle.bmp
300	real_a	real_topleft_diff_a	7	751	23	mask.bmp	blankscreen.bmp	wfd1.bmp	blankscreen.bmp	square.bmp
300	real_a	real_bottomleft_same_a	8	674	23	mask.bmp	blankscreen.bmp	wfn5.bmp	blankscreen.bmp	square.bmp
300	real_a	real_topleft_same_a	9	681	23	mask.bmp	blankscreen.bmp	wfn4.bmp	blankscreen.bmp	square.bmp
300	real_a	real_topright_diff_a	10	951	23	mask.bmp	blankscreen.bmp	wmd3.bmp	blankscreen.bmp	square.bmp
300	real_a	real_bottomright_same_a	11	866	18	mask.bmp	blankscreen.bmp	wmd5.bmp	blankscreen.bmp	circle.bmp
300	real_a	real_topright_diff_a	12	776	18	mask.bmp	blankscreen.bmp	wfd2.bmp	blankscreen.bmp	circle.bmp
300	real_a	real_topleft_diff_a	13	723	18	mask.bmp	blankscreen.bmp	wfn3.bmp	blankscreen.bmp	circle.bmp
300	real_a	real_topleft_same_a	14	1151	23	mask.bmp	blankscreen.bmp	wfd4.bmp	blankscreen.bmp	square.bmp
300	real_a	real_topright_diff_a	15	593	18	mask.bmp	blankscreen.bmp	wmn1.bmp	blankscreen.bmp	circle.bmp
300	real_a	real_bottomleft_diff_a	16	643	18	mask.bmp	blankscreen.bmp	wmn2.bmp	blankscreen.bmp	circle.bmp
300	real_a	real_bottomright_diff_a	17	963	23	mask.bmp	blankscreen.bmp	wfn2.bmp	blankscreen.bmp	square.bmp
300	real_a	real_bottomright_diff_a	18	765	23	mask.bmp	blankscreen.bmp	wmn3.bmp	blankscreen.bmp	square.bmp
300	real_a	real_bottomleft_same_a	19	712	18	mask.bmp	blankscreen.bmp	wmd4.bmp	blankscreen.bmp	circle.bmp
300	real_a	real_topright_same_a	20	757	18	mask.bmp	blankscreen.bmp	wfd5.bmp	blankscreen.bmp	circle.bmp
300	real_b	real_bottomright_diff_b	1	582	18	mask.bmp	blankscreen.bmp	wfn8.bmp	blankscreen.bmp	circle.bmp
300	real_b	real_bottomleft_same_b	2	657	18	mask.bmp	blankscreen.bmp	wfd9.bmp	blankscreen.bmp	circle.bmp
300	real_b	real_bottomright_same_b	3	616	18	mask.bmp	blankscreen.bmp	wfn10.bmp	blankscreen.bmp	circle.bmp
300	real_b	real_topright_same_b	4	665	23	mask.bmp	blankscreen.bmp	wfn9.bmp	blankscreen.bmp	square.bmp
300	real_b	real_topright_diff_b	5	537	18	mask.bmp	blankscreen.bmp	wfd8.bmp	blankscreen.bmp	circle.bmp
300	real_b	real_topleft_diff_b	6	492	18	mask.bmp	blankscreen.bmp	wmd8.bmp	blankscreen.bmp	circle.bmp
300	real_b	real_bottomright_diff_b	7	643	18	mask.bmp	blankscreen.bmp	wmd7.bmp	blankscreen.bmp	circle.bmp
300	real_b	real_topleft_diff_b	8	611	23	mask.bmp	blankscreen.bmp	wfd7.bmp	blankscreen.bmp	square.bmp
300	real_b	real_bottomright_diff_b	9	628	18	mask.bmp	blankscreen.bmp	wfd6.bmp	blankscreen.bmp	circle.bmp
300	real_b	real_bottomleft_same_b	10	484	18	mask.bmp	blankscreen.bmp	wmd10.bmp	blankscreen.bmp	circle.bmp
300	real_b	real_bottomleft_diff_b	11	555	18	mask.bmp	blankscreen.bmp	wfn7.bmp	blankscreen.bmp	circle.bmp
300	real_b	real_bottomleft_diff_b	12	511	18	mask.bmp	blankscreen.bmp	wmd6.bmp	blankscreen.bmp	circle.bmp
300	real_b	real_bottomleft_diff_b	13	644	23	mask.bmp	blankscreen.bmp	wmn8.bmp	blankscreen.bmp	square.bmp
300	real_b	real_topright_diff_b	14	676	23	mask.bmp	blankscreen.bmp	wfn6.bmp	blankscreen.bmp	square.bmp
300	real_b	real_topleft_same_b	15	611	18	mask.bmp	blankscreen.bmp	wmn9.bmp	blankscreen.bmp	circle.bmp
300	real_b	real_topright_diff_b	16	875	18	mask.bmp	blankscreen.bmp	wmn7.bmp	blankscreen.bmp	circle.bmp
300	real_b	real_topleft_same_b	17	769	23	mask.bmp	blankscreen.bmp	wmd9.bmp	blankscreen.bmp	square.bmp
300	real_b	real_topright_same_b	18	460	18	mask.bmp	blankscreen.bmp	wmn10.bmp	blankscreen.bmp	circle.bmp
300	real_b	real_bottomright_same_b	19	532	18	mask.bmp	blankscreen.bmp	wfd10.bmp	blankscreen.bmp	circle.bmp
300	real_b	real_topleft_diff_b	20	577	18	mask.bmp	blankscreen.bmp	wmn6.bmp	blankscreen.bmp	circle.bmp
300	real_c	real_topright_diff_c	1	694	23	mask.bmp	blankscreen.bmp	wmd4.bmp	blankscreen.bmp	square.bmp
300	real_c	real_topleft_same_c	2	708	18	mask.bmp	blankscreen.bmp	wfn1.bmp	blankscreen.bmp	circle.bmp
300	real_c	real_topleft_diff_c	3	520	18	mask.bmp	blankscreen.bmp	wfd3.bmp	blankscreen.bmp	circle.bmp
300	real_c	real_bottomleft_same_c	4	701	23	mask.bmp	blankscreen.bmp	wmn1.bmp	blankscreen.bmp	square.bmp
300	real_c	real_topleft_diff_c	5	635	23	mask.bmp	blankscreen.bmp	wfn4.bmp	blankscreen.bmp	square.bmp
300	real_c	real_topright_diff_c	6	532	18	mask.bmp	blankscreen.bmp	wfn5.bmp	blankscreen.bmp	circle.bmp
300	real_c	real_bottomleft_diff_c	7	568	18	mask.bmp	blankscreen.bmp	wfd4.bmp	blankscreen.bmp	circle.bmp
300	real_c	real_bottomright_same_c	8	540	23	mask.bmp	blankscreen.bmp	wmn2.bmp	blankscreen.bmp	square.bmp
300	real_c	real_bottomright_diff_c	9	872	18	mask.bmp	blankscreen.bmp	wmn4.bmp	blankscreen.bmp	circle.bmp
300	real_c	real_bottomleft_diff_c	10	502	23	mask.bmp	blankscreen.bmp	wfn3.bmp	blankscreen.bmp	square.bmp
300	real_c	real_topright_diff_c	11	532	18	mask.bmp	blankscreen.bmp	wmn3.bmp	blankscreen.bmp	circle.bmp
300	real_c	real_topright_same_c	12	521	18	mask.bmp	blankscreen.bmp	wfn2.bmp	blankscreen.bmp	circle.bmp
300	real_c	real_bottomleft_diff_c	13	798	23	mask.bmp	blankscreen.bmp	wmd5.bmp	blankscreen.bmp	square.bmp
300	real_c	real_bottomright_diff_c	14	727	23	mask.bmp	blankscreen.bmp	wfd5.bmp	blankscreen.bmp	square.bmp
300	real_c	real_topleft_diff_c	15	459	18	mask.bmp	blankscreen.bmp	wmn5.bmp	blankscreen.bmp	circle.bmp
300	real_c	real_topleft_same_c	16	419	18	mask.bmp	blankscreen.bmp	wfd1.bmp	blankscreen.bmp	circle.bmp
300	real_c	real_topright_same_c	17	581	23	mask.bmp	blankscreen.bmp	wmd1.bmp	blankscreen.bmp	square.bmp
300	real_c	real_bottomright_same_c	18	551	18	mask.bmp	blankscreen.bmp	wmd2.bmp	blankscreen.bmp	circle.bmp
300	real_c	real_bottomleft_same_c	19	483	23	mask.bmp	blankscreen.bmp	wfd2.bmp	blankscreen.bmp	square.bmp
300	real_c	real_bottomright_diff_c	20	563	18	mask.bmp	blankscreen.bmp	wmd3.bmp	blankscreen.bmp	circle.bmp
300	real_d	real_bottomleft_same_d	1	603	18	mask.bmp	blankscreen.bmp	wfn6.bmp	blankscreen.bmp	circle.bmp
300	real_d	real_bottomleft_diff_d	2	716	18	mask.bmp	blankscreen.bmp	wfd10.bmp	blankscreen.bmp	circle.bmp
300	real_d	real_bottomleft_diff_d	3	633	18	mask.bmp	blankscreen.bmp	wmn9.bmp	blankscreen.bmp	circle.bmp
300	real_d	real_topright_same_d	4	818	23	mask.bmp	blankscreen.bmp	wfd6.bmp	blankscreen.bmp	square.bmp
300	real_d	real_topright_same_d	5	610	18	mask.bmp	blankscreen.bmp	wmd7.bmp	blankscreen.bmp	circle.bmp
300	real_d	real_topright_diff_d	6	627	23	mask.bmp	blankscreen.bmp	wfn8.bmp	blankscreen.bmp	square.bmp
300	real_d	real_bottomright_same_d	7	684	18	mask.bmp	blankscreen.bmp	wfn7.bmp	blankscreen.bmp	circle.bmp
300	real_d	real_bottomleft_diff_d	8	514	18	mask.bmp	blankscreen.bmp	wmd8.bmp	blankscreen.bmp	square.bmp
300	real_d	real_topright_diff_d	9	559	18	mask.bmp	blankscreen.bmp	wfd9.bmp	blankscreen.bmp	circle.bmp
300	real_d	real_topleft_diff_d	10	483	18	mask.bmp	blankscreen.bmp	wmn8.bmp	blankscreen.bmp	circle.bmp
300	real_d	real_topleft_same_d	11	930	23	mask.bmp	blankscreen.bmp	wmn6.bmp	blankscreen.bmp	square.bmp
300	real_d	real_topleft_diff_d	12	517	18	mask.bmp	blankscreen.bmp	wfn10.bmp	blankscreen.bmp	circle.bmp
300	real_d	real_bottomright_same_d	13	547	23	mask.bmp	blankscreen.bmp	wfd7.bmp	blankscreen.bmp	square.bmp
300	real_d	real_topleft_diff_d	14	567	23	mask.bmp	blankscreen.bmp	wmd9.bmp	blankscreen.bmp	square.bmp
300	real_d	real_bottomright_diff_d	15	674	23	mask.bmp	blankscreen.bmp	wmn10.bmp	blankscreen.bmp	square.bmp
300	real_d	real_bottomright_diff_d	16	521	18	mask.bmp	blankscreen.bmp	wfd8.bmp	blankscreen.bmp	circle.bmp
300	real_d	real_topleft_same_d	17	685	23	mask.bmp	blankscreen.bmp	wmd6.bmp	blankscreen.bmp	square.bmp
300	real_d	real_topright_diff_d	18	572	18	mask.bmp	blankscreen.bmp	wmd10.bmp	blankscreen.bmp	circle.bmp
300	real_d	real_bottomright_diff_d	19	431	18	mask.bmp	blankscreen.bmp	wfn9.bmp	blankscreen.bmp	circle.bmp
300	real_d	real_bottomleft_same_d	20	736	23	mask.bmp	blankscreen.bmp	wmn7.bmp	blankscreen.bmp	square.bmp
302	practice	practice_topright_same	1	1084	18	mask.bmp	blankscreen.bmp	practice3.jpg	blankscreen.bmp	circle.bmp
302	practice	practice_bottomright_same	2	914	18	mask.bmp	blankscreen.bmp	practice8.jpg	blankscreen.bmp	circle.bmp
302	practice	practice_bottomright_diff	3	630	18	mask.bmp	blankscreen.bmp	practice12.jpg	blankscreen.bmp	circle.bmp
302	practice	practice_topleft_same	4	606	18	mask.bmp	blankscreen.bmp	practice1.jpg	blankscreen.bmp	circle.bmp
302	practice	practice_bottomleft_same	5	440	18	mask.bmp	blankscreen.bmp	practice6.jpg	blankscreen.bmp	circle.bmp
302	practice	practice_bottomright_same	6	432	23	mask.bmp	blankscreen.bmp	practice7.jpg	blankscreen.bmp	square.bmp
302	practice	practice_topleft_same	7	409	23	mask.bmp	blankscreen.bmp	practice2.jpg	blankscreen.bmp	square.bmp
302	practice	practice_bottomleft_diff	8	939	23	mask.bmp	blankscreen.bmp	practice11.jpg	blankscreen.bmp	square.bmp
302	practice	practice_topright_same	9	742	23	mask.bmp	blankscreen.bmp	practice4.jpg	blankscreen.bmp	square.bmp
302	practice	practice_topleft_diff	10	569	18	mask.bmp	blankscreen.bmp	practice9.jpg	blankscreen.bmp	circle.bmp
302	practice	practice_bottomleft_same	11	669	23	mask.bmp	blankscreen.bmp	practice5.jpg	blankscreen.bmp	square.bmp
302	practice	practice_topright_diff	12	908	18	mask.bmp	blankscreen.bmp	practice10.jpg	blankscreen.bmp	circle.bmp
302	real_a	real_topright_diff_a	1	857	23	mask.bmp	blankscreen.bmp	wmd3.bmp	blankscreen.bmp	square.bmp
302	real_a	real_topleft_diff_a	2	792	18	mask.bmp	blankscreen.bmp	wfn3.bmp	blankscreen.bmp	circle.bmp
302	real_a	real_bottomleft_diff_a	3	809	18	mask.bmp	blankscreen.bmp	wmn2.bmp	blankscreen.bmp	circle.bmp
302	real_a	real_topright_same_a	4	826	23	mask.bmp	blankscreen.bmp	wfd5.bmp	blankscreen.bmp	square.bmp
302	real_a	real_bottomright_diff_a	5	794	23	mask.bmp	blankscreen.bmp	wmd1.bmp	blankscreen.bmp	square.bmp
302	real_a	real_topleft_diff_a	6	779	18	mask.bmp	blankscreen.bmp	wfd1.bmp	blankscreen.bmp	circle.bmp
302	real_a	real_bottomleft_same_a	7	733	23	mask.bmp	blankscreen.bmp	wmd4.bmp	blankscreen.bmp	square.bmp
302	real_a	real_bottomleft_diff_a	8	1161	23	mask.bmp	blankscreen.bmp	wfn1.bmp	blankscreen.bmp	square.bmp
302	real_a	real_topleft_diff_a	9	699	23	mask.bmp	blankscreen.bmp	wmd2.bmp	blankscreen.bmp	square.bmp
302	real_a	real_topright_diff_a	10	624	18	mask.bmp	blankscreen.bmp	wfd2.bmp	blankscreen.bmp	circle.bmp
302	real_a	real_topleft_same_a	11	721	23	mask.bmp	blankscreen.bmp	wfd4.bmp	blankscreen.bmp	square.bmp
302	real_a	real_topleft_same_a	12	757	23	mask.bmp	blankscreen.bmp	wfn4.bmp	blankscreen.bmp	square.bmp
302	real_a	real_topright_same_a	13	920	23	mask.bmp	blankscreen.bmp	wmn4.bmp	blankscreen.bmp	square.bmp
302	real_a	real_bottomright_diff_a	14	804	18	mask.bmp	blankscreen.bmp	wfn2.bmp	blankscreen.bmp	circle.bmp
302	real_a	real_bottomright_same_a	15	789	18	mask.bmp	blankscreen.bmp	wmd5.bmp	blankscreen.bmp	circle.bmp
302	real_a	real_bottomleft_diff_a	16	1326	18	mask.bmp	blankscreen.bmp	wfd3.bmp	blankscreen.bmp	circle.bmp
302	real_a	real_bottomright_same_a	17	833	18	mask.bmp	blankscreen.bmp	wmn5.bmp	blankscreen.bmp	circle.bmp
302	real_a	real_topright_diff_a	18	753	23	mask.bmp	blankscreen.bmp	wmn1.bmp	blankscreen.bmp	square.bmp
302	real_a	real_bottomright_diff_a	19	812	18	mask.bmp	blankscreen.bmp	wmn3.bmp	blankscreen.bmp	circle.bmp
302	real_a	real_bottomleft_same_a	20	685	23	mask.bmp	blankscreen.bmp	wfn5.bmp	blankscreen.bmp	square.bmp
302	real_b	real_topright_diff_b	1	925	18	mask.bmp	blankscreen.bmp	wfn6.bmp	blankscreen.bmp	circle.bmp
302	real_b	real_bottomleft_diff_b	2	593	23	mask.bmp	blankscreen.bmp	wmd6.bmp	blankscreen.bmp	square.bmp
302	real_b	real_bottomleft_same_b	3	803	18	mask.bmp	blankscreen.bmp	wmd10.bmp	blankscreen.bmp	circle.bmp
302	real_b	real_topleft_diff_b	4	692	23	mask.bmp	blankscreen.bmp	wmd8.bmp	blankscreen.bmp	square.bmp
302	real_b	real_topright_same_b	5	994	18	mask.bmp	blankscreen.bmp	wmn10.bmp	blankscreen.bmp	circle.bmp
302	real_b	real_bottomright_diff_b	6	1659	18	mask.bmp	blankscreen.bmp	wfn8.bmp	blankscreen.bmp	circle.bmp
302	real_b	real_topleft_diff_b	7	727	18	mask.bmp	blankscreen.bmp	wfd7.bmp	blankscreen.bmp	circle.bmp
302	real_b	real_bottomleft_diff_b	8	931	18	mask.bmp	blankscreen.bmp	wfn7.bmp	blankscreen.bmp	circle.bmp
302	real_b	real_bottomleft_diff_b	9	879	18	mask.bmp	blankscreen.bmp	wmn8.bmp	blankscreen.bmp	circle.bmp
302	real_b	real_topright_diff_b	10	516	18	mask.bmp	blankscreen.bmp	wfd8.bmp	blankscreen.bmp	circle.bmp
302	real_b	real_bottomright_diff_b	11	634	18	mask.bmp	blankscreen.bmp	wfd6.bmp	blankscreen.bmp	circle.bmp
302	real_b	real_topright_same_b	12	706	23	mask.bmp	blankscreen.bmp	wfn9.bmp	blankscreen.bmp	square.bmp
302	real_b	real_bottomright_diff_b	13	975	23	mask.bmp	blankscreen.bmp	wmd7.bmp	blankscreen.bmp	square.bmp
302	real_b	real_bottomleft_same_b	14	785	23	mask.bmp	blankscreen.bmp	wfd9.bmp	blankscreen.bmp	square.bmp
302	real_b	real_topright_diff_b	15	659	23	mask.bmp	blankscreen.bmp	wmn7.bmp	blankscreen.bmp	square.bmp
302	real_b	real_topleft_same_b	16	602	23	mask.bmp	blankscreen.bmp	wmd9.bmp	blankscreen.bmp	square.bmp
302	real_b	real_topleft_same_b	17	491	23	mask.bmp	blankscreen.bmp	wmn9.bmp	blankscreen.bmp	square.bmp
302	real_b	real_topleft_diff_b	18	610	18	mask.bmp	blankscreen.bmp	wmn6.bmp	blankscreen.bmp	circle.bmp
302	real_b	real_bottomright_same_b	19	651	23	mask.bmp	blankscreen.bmp	wfd10.bmp	blankscreen.bmp	square.bmp
302	real_b	real_bottomright_same_b	20	651	18	mask.bmp	blankscreen.bmp	wfn10.bmp	blankscreen.bmp	circle.bmp
302	real_c	real_topleft_same_c	1	973	23	mask.bmp	blankscreen.bmp	wfd1.bmp	blankscreen.bmp	square.bmp
302	real_c	real_topright_diff_c	2	703	18	mask.bmp	blankscreen.bmp	wmn3.bmp	blankscreen.bmp	circle.bmp
302	real_c	real_bottomleft_diff_c	3	788	18	mask.bmp	blankscreen.bmp	wfd4.bmp	blankscreen.bmp	circle.bmp
302	real_c	real_bottomright_diff_c	4	678	18	mask.bmp	blankscreen.bmp	wfd5.bmp	blankscreen.bmp	circle.bmp
302	real_c	real_topleft_diff_c	5	644	23	mask.bmp	blankscreen.bmp	wmn5.bmp	blankscreen.bmp	square.bmp
302	real_c	real_topleft_same_c	6	644	18	mask.bmp	blankscreen.bmp	wfn1.bmp	blankscreen.bmp	circle.bmp
302	real_c	real_bottomright_diff_c	7	668	23	mask.bmp	blankscreen.bmp	wmn4.bmp	blankscreen.bmp	square.bmp
302	real_c	real_topright_diff_c	8	739	23	mask.bmp	blankscreen.bmp	wfn5.bmp	blankscreen.bmp	square.bmp
302	real_c	real_topleft_diff_c	9	638	18	mask.bmp	blankscreen.bmp	wfn4.bmp	blankscreen.bmp	circle.bmp
302	real_c	real_bottomright_same_c	10	614	23	mask.bmp	blankscreen.bmp	wmd2.bmp	blankscreen.bmp	square.bmp
302	real_c	real_topright_same_c	11	519	18	mask.bmp	blankscreen.bmp	wmd1.bmp	blankscreen.bmp	circle.bmp
302	real_c	real_topright_same_c	12	677	18	mask.bmp	blankscreen.bmp	wfn2.bmp	blankscreen.bmp	circle.bmp
302	real_c	real_bottomright_diff_c	13	667	23	mask.bmp	blankscreen.bmp	wmd3.bmp	blankscreen.bmp	circle.bmp
302	real_c	real_topright_diff_c	14	730	23	mask.bmp	blankscreen.bmp	wmd4.bmp	blankscreen.bmp	square.bmp
302	real_c	real_bottomright_same_c	15	598	18	mask.bmp	blankscreen.bmp	wmn2.bmp	blankscreen.bmp	circle.bmp
302	real_c	real_bottomleft_diff_c	16	808	18	mask.bmp	blankscreen.bmp	wmd5.bmp	blankscreen.bmp	circle.bmp
302	real_c	real_topleft_diff_c	17	665	18	mask.bmp	blankscreen.bmp	wfd3.bmp	blankscreen.bmp	circle.bmp
302	real_c	real_bottomleft_diff_c	18	608	23	mask.bmp	blankscreen.bmp	wfn3.bmp	blankscreen.bmp	square.bmp
302	real_c	real_bottomleft_same_c	19	681	18	mask.bmp	blankscreen.bmp	wfd2.bmp	blankscreen.bmp	circle.bmp
302	real_c	real_bottomleft_same_c	20	696	18	mask.bmp	blankscreen.bmp	wmn1.bmp	blankscreen.bmp	circle.bmp
302	real_d	real_topright_same_d	1	545	23	mask.bmp	blankscreen.bmp	wfd6.bmp	blankscreen.bmp	square.bmp
302	real_d	real_topright_diff_d	2	477	23	mask.bmp	blankscreen.bmp	wfd9.bmp	blankscreen.bmp	square.bmp
302	real_d	real_topleft_diff_d	3	676	18	mask.bmp	blankscreen.bmp	wmn8.bmp	blankscreen.bmp	circle.bmp
302	real_d	real_bottomleft_diff_d	4	570	18	mask.bmp	blankscreen.bmp	wmn9.bmp	blankscreen.bmp	circle.bmp
302	real_d	real_bottomleft_diff_d	5	574	18	mask.bmp	blankscreen.bmp	wfd10.bmp	blankscreen.bmp	circle.bmp
302	real_d	real_topleft_same_d	6	624	23	mask.bmp	blankscreen.bmp	wmd6.bmp	blankscreen.bmp	square.bmp
302	real_d	real_bottomleft_same_d	7	705	18	mask.bmp	blankscreen.bmp	wmn7.bmp	blankscreen.bmp	circle.bmp
302	real_d	real_bottomright_diff_d	8	566	18	mask.bmp	blankscreen.bmp	wfn9.bmp	blankscreen.bmp	circle.bmp
302	real_d	real_topright_diff_d	9	449	23	mask.bmp	blankscreen.bmp	wfn8.bmp	blankscreen.bmp	square.bmp
302	real_d	real_bottomright_diff_d	10	713	18	mask.bmp	blankscreen.bmp	wmn10.bmp	blankscreen.bmp	circle.bmp
302	real_d	real_bottomleft_diff_d	11	646	23	mask.bmp	blankscreen.bmp	wmd8.bmp	blankscreen.bmp	square.bmp
302	real_d	real_bottomright_same_d	12	582	18	mask.bmp	blankscreen.bmp	wfn7.bmp	blankscreen.bmp	square.bmp
302	real_d	real_bottomright_diff_d	13	681	18	mask.bmp	blankscreen.bmp	wfd8.bmp	blankscreen.bmp	circle.bmp
302	real_d	real_topright_same_d	14	815	23	mask.bmp	blankscreen.bmp	wmd7.bmp	blankscreen.bmp	square.bmp
302	real_d	real_bottomright_same_d	15	728	23	mask.bmp	blankscreen.bmp	wfd7.bmp	blankscreen.bmp	square.bmp
302	real_d	real_topright_diff_d	16	668	18	mask.bmp	blankscreen.bmp	wmd10.bmp	blankscreen.bmp	circle.bmp
302	real_d	real_topleft_diff_d	17	683	23	mask.bmp	blankscreen.bmp	wmd9.bmp	blankscreen.bmp	square.bmp
302	real_d	real_bottomleft_same_d	18	746	23	mask.bmp	blankscreen.bmp	wfn6.bmp	blankscreen.bmp	square.bmp
302	real_d	real_topleft_diff_d	19	637	18	mask.bmp	blankscreen.bmp	wfn10.bmp	blankscreen.bmp	circle.bmp
302	real_d	real_topleft_same_d	20	694	23	mask.bmp	blankscreen.bmp	wmn6.bmp	blankscreen.bmp	square.bmp
304	practice	practice_bottomright_diff	1	1095	23	mask.bmp	blankscreen.bmp	practice12.jpg	blankscreen.bmp	square.bmp
304	practice	practice_bottomleft_same	2	747	23	mask.bmp	blankscreen.bmp	practice5.jpg	blankscreen.bmp	square.bmp
304	practice	practice_topright_diff	3	903	18	mask.bmp	blankscreen.bmp	practice10.jpg	blankscreen.bmp	circle.bmp
304	practice	practice_topright_same	4	652	23	mask.bmp	blankscreen.bmp	practice4.jpg	blankscreen.bmp	square.bmp
304	practice	practice_bottomleft_same	5	868	23	mask.bmp	blankscreen.bmp	practice6.jpg	blankscreen.bmp	square.bmp
304	practice	practice_bottomleft_diff	6	874	18	mask.bmp	blankscreen.bmp	practice11.jpg	blankscreen.bmp	circle.bmp
304	practice	practice_topleft_same	7	600	18	mask.bmp	blankscreen.bmp	practice2.jpg	blankscreen.bmp	circle.bmp
304	practice	practice_topright_same	8	554	18	mask.bmp	blankscreen.bmp	practice3.jpg	blankscreen.bmp	circle.bmp
304	practice	practice_topleft_same	9	462	23	mask.bmp	blankscreen.bmp	practice1.jpg	blankscreen.bmp	square.bmp
304	practice	practice_topleft_diff	10	661	18	mask.bmp	blankscreen.bmp	practice9.jpg	blankscreen.bmp	square.bmp
304	practice	practice_bottomright_same	11	844	18	mask.bmp	blankscreen.bmp	practice8.jpg	blankscreen.bmp	circle.bmp
304	practice	practice_bottomright_same	12	844	18	mask.bmp	blankscreen.bmp	practice7.jpg	blankscreen.bmp	circle.bmp
304	real_a	real_topleft_diff_a	1	1713	18	mask.bmp	blankscreen.bmp	wmd2.bmp	blankscreen.bmp	circle.bmp
304	real_a	real_topleft_same_a	2	987	23	mask.bmp	blankscreen.bmp	wfd4.bmp	blankscreen.bmp	square.bmp
304	real_a	real_topright_diff_a	3	1692	18	mask.bmp	blankscreen.bmp	wmd3.bmp	blankscreen.bmp	square.bmp
304	real_a	real_bottomleft_diff_a	4	1343	23	mask.bmp	blankscreen.bmp	wfd3.bmp	blankscreen.bmp	square.bmp
304	real_a	real_topright_diff_a	5	1009	23	mask.bmp	blankscreen.bmp	wfd2.bmp	blankscreen.bmp	square.bmp
304	real_a	real_bottomright_diff_a	6	1257	23	mask.bmp	blankscreen.bmp	wmn3.bmp	blankscreen.bmp	square.bmp
304	real_a	real_topleft_diff_a	7	1342	18	mask.bmp	blankscreen.bmp	wfd1.bmp	blankscreen.bmp	circle.bmp
304	real_a	real_topleft_same_a	8	2312	18	mask.bmp	blankscreen.bmp	wfn4.bmp	blankscreen.bmp	circle.bmp
304	real_a	real_topleft_diff_a	9	712	23	mask.bmp	blankscreen.bmp	wfn3.bmp	blankscreen.bmp	square.bmp
304	real_a	real_bottomleft_same_a	10	1645	18	mask.bmp	blankscreen.bmp	wmd4.bmp	blankscreen.bmp	circle.bmp
304	real_a	real_bottomright_diff_a	11	1217	18	mask.bmp	blankscreen.bmp	wfn2.bmp	blankscreen.bmp	circle.bmp
304	real_a	real_topright_same_a	12	1545	23	mask.bmp	blankscreen.bmp	wmn4.bmp	blankscreen.bmp	square.bmp
304	real_a	real_bottomleft_diff_a	13	810	18	mask.bmp	blankscreen.bmp	wfn1.bmp	blankscreen.bmp	circle.bmp
304	real_a	real_bottomright_same_a	14	1010	23	mask.bmp	blankscreen.bmp	wmd5.bmp	blankscreen.bmp	square.bmp
304	real_a	real_bottomright_diff_a	15	1154	18	mask.bmp	blankscreen.bmp	wmd1.bmp	blankscreen.bmp	circle.bmp
304	real_a	real_topright_same_a	16	1134	18	mask.bmp	blankscreen.bmp	wfd5.bmp	blankscreen.bmp	circle.bmp
304	real_a	real_bottomleft_same_a	17	808	18	mask.bmp	blankscreen.bmp	wfn5.bmp	blankscreen.bmp	circle.bmp
304	real_a	real_bottomright_same_a	18	728	23	mask.bmp	blankscreen.bmp	wmn5.bmp	blankscreen.bmp	square.bmp
304	real_a	real_bottomleft_diff_a	19	965	18	mask.bmp	blankscreen.bmp	wmn2.bmp	blankscreen.bmp	circle.bmp
304	real_a	real_topright_diff_a	20	2111	23	mask.bmp	blankscreen.bmp	wmn1.bmp	blankscreen.bmp	square.bmp
304	real_b	real_topright_same_b	1	1123	18	mask.bmp	blankscreen.bmp	wmn10.bmp	blankscreen.bmp	circle.bmp
304	real_b	real_topleft_diff_b	2	534	23	mask.bmp	blankscreen.bmp	wmn6.bmp	blankscreen.bmp	square.bmp
304	real_b	real_bottomright_same_b	3	675	23	mask.bmp	blankscreen.bmp	wfn10.bmp	blankscreen.bmp	square.bmp
304	real_b	real_topleft_diff_b	4	801	23	mask.bmp	blankscreen.bmp	wfd7.bmp	blankscreen.bmp	square.bmp
304	real_b	real_topright_diff_b	5	563	18	mask.bmp	blankscreen.bmp	wmn7.bmp	blankscreen.bmp	circle.bmp
304	real_b	real_topright_diff_b	6	534	23	mask.bmp	blankscreen.bmp	wfn6.bmp	blankscreen.bmp	square.bmp
304	real_b	real_bottomleft_diff_b	7	2971	23	mask.bmp	blankscreen.bmp	wmd6.bmp	blankscreen.bmp	square.bmp
304	real_b	real_bottomright_same_b	8	751	23	mask.bmp	blankscreen.bmp	wfd10.bmp	blankscreen.bmp	square.bmp
304	real_b	real_bottomleft_diff_b	9	835	18	mask.bmp	blankscreen.bmp	wmn8.bmp	blankscreen.bmp	circle.bmp
304	real_b	real_bottomleft_same_b	10	931	18	mask.bmp	blankscreen.bmp	wmd10.bmp	blankscreen.bmp	circle.bmp
304	real_b	real_bottomleft_diff_b	11	1038	23	mask.bmp	blankscreen.bmp	wfn7.bmp	blankscreen.bmp	square.bmp
304	real_b	real_topleft_same_b	12	1061	18	mask.bmp	blankscreen.bmp	wmn9.bmp	blankscreen.bmp	circle.bmp
304	real_b	real_bottomright_diff_b	13	730	18	mask.bmp	blankscreen.bmp	wfd6.bmp	blankscreen.bmp	circle.bmp
304	real_b	real_bottomright_diff_b	14	1255	18	mask.bmp	blankscreen.bmp	wmd7.bmp	blankscreen.bmp	circle.bmp
304	real_b	real_topleft_diff_b	15	1405	18	mask.bmp	blankscreen.bmp	wmd8.bmp	blankscreen.bmp	circle.bmp
304	real_b	real_topleft_same_b	16	932	18	mask.bmp	blankscreen.bmp	wmd9.bmp	blankscreen.bmp	circle.bmp
304	real_b	real_topright_same_b	17	496	18	mask.bmp	blankscreen.bmp	wfn9.bmp	blankscreen.bmp	circle.bmp
304	real_b	real_bottomleft_same_b	18	622	23	mask.bmp	blankscreen.bmp	wfd9.bmp	blankscreen.bmp	square.bmp
304	real_b	real_topright_diff_b	19	663	18	mask.bmp	blankscreen.bmp	wfd8.bmp	blankscreen.bmp	square.bmp
304	real_b	real_bottomright_diff_b	20	942	18	mask.bmp	blankscreen.bmp	wfn8.bmp	blankscreen.bmp	circle.bmp
304	real_c	real_bottomleft_same_c	1	1559	23	mask.bmp	blankscreen.bmp	wfd2.bmp	blankscreen.bmp	square.bmp
304	real_c	real_bottomleft_diff_c	2	855	18	mask.bmp	blankscreen.bmp	wmd5.bmp	blankscreen.bmp	circle.bmp
304	real_c	real_topright_diff_c	3	1134	18	mask.bmp	blankscreen.bmp	wfn5.bmp	blankscreen.bmp	circle.bmp
304	real_c	real_bottomleft_diff_c	4	792	18	mask.bmp	blankscreen.bmp	wfd4.bmp	blankscreen.bmp	circle.bmp
304	real_c	real_topright_diff_c	5	930	18	mask.bmp	blankscreen.bmp	wmd4.bmp	blankscreen.bmp	circle.bmp
304	real_c	real_topleft_diff_c	6	797	18	mask.bmp	blankscreen.bmp	wmn5.bmp	blankscreen.bmp	circle.bmp
304	real_c	real_topright_same_c	7	863	18	mask.bmp	blankscreen.bmp	wmd1.bmp	blankscreen.bmp	circle.bmp
304	real_c	real_bottomleft_diff_c	8	829	23	mask.bmp	blankscreen.bmp	wfn3.bmp	blankscreen.bmp	square.bmp
304	real_c	real_bottomright_same_c	9	677	18	mask.bmp	blankscreen.bmp	wmn2.bmp	blankscreen.bmp	circle.bmp
304	real_c	real_topright_same_c	10	876	23	mask.bmp	blankscreen.bmp	wfn2.bmp	blankscreen.bmp	square.bmp
304	real_c	real_bottomright_diff_c	11	857	23	mask.bmp	blankscreen.bmp	wmn4.bmp	blankscreen.bmp	square.bmp
304	real_c	real_topleft_same_c	12	1488	18	mask.bmp	blankscreen.bmp	wfn1.bmp	blankscreen.bmp	circle.bmp
304	real_c	real_topleft_diff_c	13	1012	23	mask.bmp	blankscreen.bmp	wfd3.bmp	blankscreen.bmp	circle.bmp
304	real_c	real_bottomright_diff_c	14	1052	23	mask.bmp	blankscreen.bmp	wfd5.bmp	blankscreen.bmp	square.bmp
304	real_c	real_bottomright_diff_c	15	1082	18	mask.bmp	blankscreen.bmp	wmd3.bmp	blankscreen.bmp	circle.bmp
304	real_c	real_topleft_diff_c	16	1000	23	mask.bmp	blankscreen.bmp	wfn4.bmp	blankscreen.bmp	square.bmp
304	real_c	real_topleft_same_c	17	744	18	mask.bmp	blankscreen.bmp	wfd1.bmp	blankscreen.bmp	circle.bmp
304	real_c	real_bottomright_same_c	18	884	23	mask.bmp	blankscreen.bmp	wmd2.bmp	blankscreen.bmp	square.bmp
304	real_c	real_bottomleft_same_c	19	1153	18	mask.bmp	blankscreen.bmp	wmn1.bmp	blankscreen.bmp	circle.bmp
304	real_c	real_topright_diff_c	20	980	18	mask.bmp	blankscreen.bmp	wmn3.bmp	blankscreen.bmp	circle.bmp
304	real_d	real_topright_diff_d	1	1360	23	mask.bmp	blankscreen.bmp	wmd10.bmp	blankscreen.bmp	square.bmp
304	real_d	real_topleft_same_d	2	816	23	mask.bmp	blankscreen.bmp	wmn6.bmp	blankscreen.bmp	square.bmp
304	real_d	real_topleft_diff_d	3	1169	18	mask.bmp	blankscreen.bmp	wfn10.bmp	blankscreen.bmp	circle.bmp
304	real_d	real_topright_diff_d	4	963	23	mask.bmp	blankscreen.bmp	wfd9.bmp	blankscreen.bmp	square.bmp
304	real_d	real_topright_same_d	5	669	18	mask.bmp	blankscreen.bmp	wmd7.bmp	blankscreen.bmp	circle.bmp
304	real_d	real_bottomleft_diff_d	6	1204	18	mask.bmp	blankscreen.bmp	wfd10.bmp	blankscreen.bmp	circle.bmp
304	real_d	real_bottomleft_diff_d	7	932	23	mask.bmp	blankscreen.bmp	wmn9.bmp	blankscreen.bmp	square.bmp
304	real_d	real_bottomleft_same_d	8	1448	23	mask.bmp	blankscreen.bmp	wmn7.bmp	blankscreen.bmp	square.bmp
304	real_d	real_topleft_same_d	9	1053	18	mask.bmp	blankscreen.bmp	wmd6.bmp	blankscreen.bmp	circle.bmp
304	real_d	real_bottomleft_same_d	10	1156	23	mask.bmp	blankscreen.bmp	wfn6.bmp	blankscreen.bmp	square.bmp
304	real_d	real_topright_diff_d	11	1605	18	mask.bmp	blankscreen.bmp	wfn8.bmp	blankscreen.bmp	circle.bmp
304	real_d	real_bottomright_diff_d	12	988	23	mask.bmp	blankscreen.bmp	wfn9.bmp	blankscreen.bmp	square.bmp
304	real_d	real_bottomright_same_d	13	701	18	mask.bmp	blankscreen.bmp	wfn7.bmp	blankscreen.bmp	circle.bmp
304	real_d	real_bottomright_diff_d	14	1522	18	mask.bmp	blankscreen.bmp	wmn10.bmp	blankscreen.bmp	circle.bmp
304	real_d	real_bottomleft_diff_d	15	1061	18	mask.bmp	blankscreen.bmp	wmd8.bmp	blankscreen.bmp	circle.bmp
304	real_d	real_bottomright_diff_d	16	1411	18	mask.bmp	blankscreen.bmp	wfd8.bmp	blankscreen.bmp	circle.bmp
304	real_d	real_topleft_diff_d	17	922	23	mask.bmp	blankscreen.bmp	wmn8.bmp	blankscreen.bmp	square.bmp
304	real_d	real_topright_same_d	18	757	18	mask.bmp	blankscreen.bmp	wfd6.bmp	blankscreen.bmp	circle.bmp
304	real_d	real_bottomright_same_d	19	2320	23	mask.bmp	blankscreen.bmp	wfd7.bmp	blankscreen.bmp	square.bmp
304	real_d	real_topleft_diff_d	20	2400	23	mask.bmp	blankscreen.bmp	wmd9.bmp	blankscreen.bmp	square.bmp
307	practice	practice_bottomleft_same	1	2766	23	mask.bmp	blankscreen.bmp	practice5.jpg	blankscreen.bmp	square.bmp
307	practice	practice_bottomright_diff	2	2265	23	mask.bmp	blankscreen.bmp	practice12.jpg	blankscreen.bmp	circle.bmp
307	practice	practice_topright_same	3	1996	18	mask.bmp	blankscreen.bmp	practice3.jpg	blankscreen.bmp	circle.bmp
307	practice	practice_topleft_diff	4	1353	23	mask.bmp	blankscreen.bmp	practice9.jpg	blankscreen.bmp	circle.bmp
307	practice	practice_bottomright_same	5	2139	23	mask.bmp	blankscreen.bmp	practice8.jpg	blankscreen.bmp	circle.bmp
307	practice	practice_bottomright_same	6	2075	23	mask.bmp	blankscreen.bmp	practice7.jpg	blankscreen.bmp	square.bmp
307	practice	practice_topright_diff	7	1478	23	mask.bmp	blankscreen.bmp	practice10.jpg	blankscreen.bmp	square.bmp
307	practice	practice_topright_same	8	721	18	mask.bmp	blankscreen.bmp	practice4.jpg	blankscreen.bmp	circle.bmp
307	practice	practice_bottomleft_diff	9	918	23	mask.bmp	blankscreen.bmp	practice11.jpg	blankscreen.bmp	square.bmp
307	practice	practice_topleft_same	10	1162	18	mask.bmp	blankscreen.bmp	practice1.jpg	blankscreen.bmp	circle.bmp
307	practice	practice_bottomleft_same	11	1107	18	mask.bmp	blankscreen.bmp	practice6.jpg	blankscreen.bmp	circle.bmp
307	practice	practice_topleft_same	12	1575	18	mask.bmp	blankscreen.bmp	practice2.jpg	blankscreen.bmp	circle.bmp
307	real_a	real_topright_same_a	1	1446	23	mask.bmp	blankscreen.bmp	wmn4.bmp	blankscreen.bmp	square.bmp
307	real_a	real_bottomleft_diff_a	2	970	18	mask.bmp	blankscreen.bmp	wfn1.bmp	blankscreen.bmp	circle.bmp
307	real_a	real_bottomleft_same_a	3	685	23	mask.bmp	blankscreen.bmp	wmd4.bmp	blankscreen.bmp	square.bmp
307	real_a	real_topleft_diff_a	4	507	18	mask.bmp	blankscreen.bmp	wmd2.bmp	blankscreen.bmp	circle.bmp
307	real_a	real_bottomright_same_a	5	913	18	mask.bmp	blankscreen.bmp	wmn5.bmp	blankscreen.bmp	circle.bmp
307	real_a	real_bottomright_diff_a	6	566	23	mask.bmp	blankscreen.bmp	wmn3.bmp	blankscreen.bmp	square.bmp
307	real_a	real_bottomleft_same_a	7	624	23	mask.bmp	blankscreen.bmp	wfn5.bmp	blankscreen.bmp	square.bmp
307	real_a	real_bottomright_same_a	8	1177	23	mask.bmp	blankscreen.bmp	wmd5.bmp	blankscreen.bmp	square.bmp
307	real_a	real_topleft_diff_a	9	794	18	mask.bmp	blankscreen.bmp	wfd1.bmp	blankscreen.bmp	circle.bmp
307	real_a	real_topright_diff_a	10	1131	23	mask.bmp	blankscreen.bmp	wfd2.bmp	blankscreen.bmp	square.bmp
307	real_a	real_topright_diff_a	11	1286	18	mask.bmp	blankscreen.bmp	wmn1.bmp	blankscreen.bmp	circle.bmp
307	real_a	real_topright_diff_a	12	714	18	mask.bmp	blankscreen.bmp	wmd3.bmp	blankscreen.bmp	circle.bmp
307	real_a	real_topleft_diff_a	13	983	23	mask.bmp	blankscreen.bmp	wfn3.bmp	blankscreen.bmp	square.bmp
307	real_a	real_bottomright_diff_a	14	657	23	mask.bmp	blankscreen.bmp	wfn2.bmp	blankscreen.bmp	square.bmp
307	real_a	real_bottomleft_diff_a	15	1152	18	mask.bmp	blankscreen.bmp	wfd3.bmp	blankscreen.bmp	circle.bmp
307	real_a	real_topleft_same_a	16	1082	23	mask.bmp	blankscreen.bmp	wfn4.bmp	blankscreen.bmp	square.bmp
307	real_a	real_bottomleft_diff_a	17	759	18	mask.bmp	blankscreen.bmp	wmn2.bmp	blankscreen.bmp	circle.bmp
307	real_a	real_topleft_same_a	18	810	18	mask.bmp	blankscreen.bmp	wfd4.bmp	blankscreen.bmp	circle.bmp
307	real_a	real_bottomright_diff_a	19	651	18	mask.bmp	blankscreen.bmp	wmd1.bmp	blankscreen.bmp	circle.bmp
307	real_a	real_topright_same_a	20	618	18	mask.bmp	blankscreen.bmp	wfd5.bmp	blankscreen.bmp	circle.bmp
307	real_b	real_bottomright_same_b	1	990	18	mask.bmp	blankscreen.bmp	wfd10.bmp	blankscreen.bmp	circle.bmp
307	real_b	real_topright_diff_b	2	751	23	mask.bmp	blankscreen.bmp	wmn7.bmp	blankscreen.bmp	square.bmp
307	real_b	real_bottomleft_diff_b	3	843	23	mask.bmp	blankscreen.bmp	wfn7.bmp	blankscreen.bmp	square.bmp
307	real_b	real_bottomright_diff_b	4	554	23	mask.bmp	blankscreen.bmp	wmd7.bmp	blankscreen.bmp	square.bmp
307	real_b	real_bottomright_diff_b	5	622	23	mask.bmp	blankscreen.bmp	wfd6.bmp	blankscreen.bmp	square.bmp
307	real_b	real_bottomleft_diff_b	6	670	23	mask.bmp	blankscreen.bmp	wmn8.bmp	blankscreen.bmp	square.bmp
307	real_b	real_bottomright_same_b	7	645	23	mask.bmp	blankscreen.bmp	wfn10.bmp	blankscreen.bmp	square.bmp
307	real_b	real_topright_same_b	8	549	23	mask.bmp	blankscreen.bmp	wfn9.bmp	blankscreen.bmp	square.bmp
307	real_b	real_topleft_diff_b	9	705	18	mask.bmp	blankscreen.bmp	wmn6.bmp	blankscreen.bmp	circle.bmp
307	real_b	real_bottomright_diff_b	10	1070	23	mask.bmp	blankscreen.bmp	wfn8.bmp	blankscreen.bmp	square.bmp
307	real_b	real_bottomleft_diff_b	11	532	18	mask.bmp	blankscreen.bmp	wmd6.bmp	blankscreen.bmp	circle.bmp
307	real_b	real_topleft_diff_b	12	576	18	mask.bmp	blankscreen.bmp	wfd7.bmp	blankscreen.bmp	circle.bmp
307	real_b	real_topright_diff_b	13	523	23	mask.bmp	blankscreen.bmp	wfn6.bmp	blankscreen.bmp	square.bmp
307	real_b	real_bottomleft_same_b	14	680	23	mask.bmp	blankscreen.bmp	wfd9.bmp	blankscreen.bmp	square.bmp
307	real_b	real_topright_same_b	15	614	23	mask.bmp	blankscreen.bmp	wmn10.bmp	blankscreen.bmp	square.bmp
307	real_b	real_bottomleft_same_b	16	623	23	mask.bmp	blankscreen.bmp	wmd10.bmp	blankscreen.bmp	square.bmp
307	real_b	real_topright_diff_b	17	1264	18	mask.bmp	blankscreen.bmp	wfd8.bmp	blankscreen.bmp	circle.bmp
307	real_b	real_topleft_diff_b	18	718	23	mask.bmp	blankscreen.bmp	wmd8.bmp	blankscreen.bmp	square.bmp
307	real_b	real_topleft_same_b	19	730	23	mask.bmp	blankscreen.bmp	wmn9.bmp	blankscreen.bmp	square.bmp
307	real_b	real_topleft_same_b	20	846	18	mask.bmp	blankscreen.bmp	wmd9.bmp	blankscreen.bmp	circle.bmp
307	real_c	real_bottomright_diff_c	1	712	23	mask.bmp	blankscreen.bmp	wmn4.bmp	blankscreen.bmp	square.bmp
307	real_c	real_bottomleft_diff_c	2	1053	18	mask.bmp	blankscreen.bmp	wmd5.bmp	blankscreen.bmp	circle.bmp
307	real_c	real_topright_diff_c	3	651	18	mask.bmp	blankscreen.bmp	wmn3.bmp	blankscreen.bmp	circle.bmp
307	real_c	real_topright_same_c	4	619	18	mask.bmp	blankscreen.bmp	wfn2.bmp	blankscreen.bmp	circle.bmp
307	real_c	real_bottomright_same_c	5	1309	23	mask.bmp	blankscreen.bmp	wmd2.bmp	blankscreen.bmp	square.bmp
307	real_c	real_bottomleft_same_c	6	735	23	mask.bmp	blankscreen.bmp	wmn1.bmp	blankscreen.bmp	square.bmp
307	real_c	real_topright_diff_c	7	636	23	mask.bmp	blankscreen.bmp	wmd4.bmp	blankscreen.bmp	square.bmp
307	real_c	real_bottomleft_diff_c	8	692	18	mask.bmp	blankscreen.bmp	wfn3.bmp	blankscreen.bmp	circle.bmp
307	real_c	real_topleft_diff_c	9	578	18	mask.bmp	blankscreen.bmp	wmn5.bmp	blankscreen.bmp	circle.bmp
307	real_c	real_topright_same_c	10	660	23	mask.bmp	blankscreen.bmp	wmd1.bmp	blankscreen.bmp	square.bmp
307	real_c	real_topleft_diff_c	11	588	18	mask.bmp	blankscreen.bmp	wfd3.bmp	blankscreen.bmp	circle.bmp
307	real_c	real_bottomleft_same_c	12	598	23	mask.bmp	blankscreen.bmp	wfd2.bmp	blankscreen.bmp	circle.bmp
307	real_c	real_bottomright_diff_c	13	816	23	mask.bmp	blankscreen.bmp	wfd5.bmp	blankscreen.bmp	square.bmp
307	real_c	real_bottomright_same_c	14	552	23	mask.bmp	blankscreen.bmp	wmn2.bmp	blankscreen.bmp	square.bmp
307	real_c	real_topleft_same_c	15	676	23	mask.bmp	blankscreen.bmp	wfd1.bmp	blankscreen.bmp	square.bmp
307	real_c	real_bottomleft_diff_c	16	450	18	mask.bmp	blankscreen.bmp	wfd4.bmp	blankscreen.bmp	circle.bmp
307	real_c	real_topright_diff_c	17	731	23	mask.bmp	blankscreen.bmp	wfn5.bmp	blankscreen.bmp	square.bmp
307	real_c	real_bottomright_diff_c	18	727	23	mask.bmp	blankscreen.bmp	wmd3.bmp	blankscreen.bmp	square.bmp
307	real_c	real_topleft_same_c	19	867	18	mask.bmp	blankscreen.bmp	wfn1.bmp	blankscreen.bmp	circle.bmp
307	real_c	real_topleft_diff_c	20	1338	18	mask.bmp	blankscreen.bmp	wfn4.bmp	blankscreen.bmp	circle.bmp
307	real_d	real_topright_same_d	1	1074	18	mask.bmp	blankscreen.bmp	wfd6.bmp	blankscreen.bmp	circle.bmp
307	real_d	real_bottomright_diff_d	2	1623	18	mask.bmp	blankscreen.bmp	wfd8.bmp	blankscreen.bmp	circle.bmp
307	real_d	real_topright_diff_d	3	853	23	mask.bmp	blankscreen.bmp	wfn8.bmp	blankscreen.bmp	square.bmp
307	real_d	real_bottomleft_same_d	4	1499	18	mask.bmp	blankscreen.bmp	wmn7.bmp	blankscreen.bmp	circle.bmp
307	real_d	real_bottomleft_diff_d	5	1239	23	mask.bmp	blankscreen.bmp	wfd10.bmp	blankscreen.bmp	square.bmp
307	real_d	real_bottomleft_diff_d	6	429	23	mask.bmp	blankscreen.bmp	wmd8.bmp	blankscreen.bmp	square.bmp
307	real_d	real_topleft_diff_d	7	1734	18	mask.bmp	blankscreen.bmp	wmd9.bmp	blankscreen.bmp	circle.bmp
307	real_d	real_bottomleft_diff_d	8	1791	18	mask.bmp	blankscreen.bmp	wmn9.bmp	blankscreen.bmp	circle.bmp
307	real_d	real_topleft_same_d	9	1270	23	mask.bmp	blankscreen.bmp	wmd6.bmp	blankscreen.bmp	square.bmp
307	real_d	real_bottomright_same_d	10	803	18	mask.bmp	blankscreen.bmp	wfn7.bmp	blankscreen.bmp	circle.bmp
307	real_d	real_bottomright_diff_d	11	524	23	mask.bmp	blankscreen.bmp	wmn10.bmp	blankscreen.bmp	square.bmp
307	real_d	real_topleft_same_d	12	833	23	mask.bmp	blankscreen.bmp	wmn6.bmp	blankscreen.bmp	square.bmp
307	real_d	real_topright_diff_d	13	609	23	mask.bmp	blankscreen.bmp	wfd9.bmp	blankscreen.bmp	square.bmp
307	real_d	real_topleft_diff_d	14	842	23	mask.bmp	blankscreen.bmp	wfn10.bmp	blankscreen.bmp	square.bmp
307	real_d	real_bottomright_diff_d	15	817	23	mask.bmp	blankscreen.bmp	wfn9.bmp	blankscreen.bmp	square.bmp
307	real_d	real_bottomleft_same_d	16	786	23	mask.bmp	blankscreen.bmp	wfn6.bmp	blankscreen.bmp	square.bmp
307	real_d	real_bottomright_same_d	17	564	18	mask.bmp	blankscreen.bmp	wfd7.bmp	blankscreen.bmp	circle.bmp
307	real_d	real_topright_diff_d	18	775	18	mask.bmp	blankscreen.bmp	wmd10.bmp	blankscreen.bmp	circle.bmp
307	real_d	real_topleft_diff_d	19	777	18	mask.bmp	blankscreen.bmp	wmn8.bmp	blankscreen.bmp	circle.bmp
307	real_d	real_topright_same_d	20	603	18	mask.bmp	blankscreen.bmp	wmd7.bmp	blankscreen.bmp	circle.bmp
309	practice	practice_topleft_same	1	2151	23	mask.bmp	blankscreen.bmp	practice1.jpg	blankscreen.bmp	square.bmp
309	practice	practice_bottomright_same	2	1022	23	mask.bmp	blankscreen.bmp	practice8.jpg	blankscreen.bmp	square.bmp
309	practice	practice_bottomleft_diff	3	797	23	mask.bmp	blankscreen.bmp	practice11.jpg	blankscreen.bmp	square.bmp
309	practice	practice_bottomleft_same	4	774	18	mask.bmp	blankscreen.bmp	practice6.jpg	blankscreen.bmp	circle.bmp
309	practice	practice_bottomleft_same	5	600	18	mask.bmp	blankscreen.bmp	practice5.jpg	blankscreen.bmp	circle.bmp
309	practice	practice_topleft_diff	6	690	23	mask.bmp	blankscreen.bmp	practice9.jpg	blankscreen.bmp	square.bmp
309	practice	practice_topright_diff	7	768	23	mask.bmp	blankscreen.bmp	practice10.jpg	blankscreen.bmp	square.bmp
309	practice	practice_topright_same	8	595	18	mask.bmp	blankscreen.bmp	practice3.jpg	blankscreen.bmp	circle.bmp
309	practice	practice_bottomright_diff	9	597	23	mask.bmp	blankscreen.bmp	practice12.jpg	blankscreen.bmp	square.bmp
309	practice	practice_bottomright_same	10	607	18	mask.bmp	blankscreen.bmp	practice7.jpg	blankscreen.bmp	circle.bmp
309	practice	practice_topleft_same	11	448	18	mask.bmp	blankscreen.bmp	practice2.jpg	blankscreen.bmp	circle.bmp
309	practice	practice_topright_same	12	584	18	mask.bmp	blankscreen.bmp	practice4.jpg	blankscreen.bmp	circle.bmp
309	real_a	real_bottomright_diff_a	1	609	18	mask.bmp	blankscreen.bmp	wfn2.bmp	blankscreen.bmp	square.bmp
309	real_a	real_bottomright_diff_a	2	921	18	mask.bmp	blankscreen.bmp	wmn3.bmp	blankscreen.bmp	circle.bmp
309	real_a	real_bottomleft_diff_a	3	813	23	mask.bmp	blankscreen.bmp	wfn1.bmp	blankscreen.bmp	circle.bmp
309	real_a	real_topright_same_a	4	726	18	mask.bmp	blankscreen.bmp	wfd5.bmp	blankscreen.bmp	circle.bmp
309	real_a	real_topleft_diff_a	5	754	18	mask.bmp	blankscreen.bmp	wfd1.bmp	blankscreen.bmp	circle.bmp
309	real_a	real_topleft_diff_a	6	669	18	mask.bmp	blankscreen.bmp	wmd2.bmp	blankscreen.bmp	circle.bmp
309	real_a	real_topleft_same_a	7	525	18	mask.bmp	blankscreen.bmp	wfn4.bmp	blankscreen.bmp	circle.bmp
309	real_a	real_topright_same_a	8	561	18	mask.bmp	blankscreen.bmp	wmn4.bmp	blankscreen.bmp	circle.bmp
309	real_a	real_bottomright_same_a	9	540	23	mask.bmp	blankscreen.bmp	wmd5.bmp	blankscreen.bmp	square.bmp
309	real_a	real_topright_diff_a	10	576	18	mask.bmp	blankscreen.bmp	wfd2.bmp	blankscreen.bmp	circle.bmp
309	real_a	real_bottomright_same_a	11	443	23	mask.bmp	blankscreen.bmp	wmn5.bmp	blankscreen.bmp	square.bmp
309	real_a	real_bottomleft_diff_a	12	459	18	mask.bmp	blankscreen.bmp	wfd3.bmp	blankscreen.bmp	circle.bmp
309	real_a	real_topleft_same_a	13	643	23	mask.bmp	blankscreen.bmp	wfd4.bmp	blankscreen.bmp	circle.bmp
309	real_a	real_bottomright_diff_a	14	915	23	mask.bmp	blankscreen.bmp	wmd1.bmp	blankscreen.bmp	square.bmp
309	real_a	real_bottomleft_same_a	15	792	23	mask.bmp	blankscreen.bmp	wfn5.bmp	blankscreen.bmp	square.bmp
309	real_a	real_bottomleft_same_a	16	489	18	mask.bmp	blankscreen.bmp	wmd4.bmp	blankscreen.bmp	circle.bmp
309	real_a	real_bottomleft_diff_a	17	760	23	mask.bmp	blankscreen.bmp	wmn2.bmp	blankscreen.bmp	square.bmp
309	real_a	real_topright_diff_a	18	730	23	mask.bmp	blankscreen.bmp	wmd3.bmp	blankscreen.bmp	square.bmp
309	real_a	real_topleft_diff_a	19	918	18	mask.bmp	blankscreen.bmp	wfn3.bmp	blankscreen.bmp	circle.bmp
309	real_a	real_topright_diff_a	20	882	18	mask.bmp	blankscreen.bmp	wmn1.bmp	blankscreen.bmp	circle.bmp
309	real_b	real_topleft_diff_b	1	820	18	mask.bmp	blankscreen.bmp	wfd7.bmp	blankscreen.bmp	circle.bmp
309	real_b	real_topright_diff_b	2	516	18	mask.bmp	blankscreen.bmp	wmn7.bmp	blankscreen.bmp	circle.bmp
309	real_b	real_topleft_diff_b	3	482	18	mask.bmp	blankscreen.bmp	wmn6.bmp	blankscreen.bmp	circle.bmp
309	real_b	real_bottomleft_same_b	4	529	23	mask.bmp	blankscreen.bmp	wmd10.bmp	blankscreen.bmp	square.bmp
309	real_b	real_bottomright_diff_b	5	966	18	mask.bmp	blankscreen.bmp	wfd6.bmp	blankscreen.bmp	circle.bmp
309	real_b	real_topleft_same_b	6	640	23	mask.bmp	blankscreen.bmp	wmd9.bmp	blankscreen.bmp	square.bmp
309	real_b	real_bottomleft_diff_b	7	840	23	mask.bmp	blankscreen.bmp	wmd6.bmp	blankscreen.bmp	square.bmp
309	real_b	real_topright_same_b	8	624	18	mask.bmp	blankscreen.bmp	wfn9.bmp	blankscreen.bmp	circle.bmp
309	real_b	real_topleft_diff_b	9	1016	23	mask.bmp	blankscreen.bmp	wmd8.bmp	blankscreen.bmp	square.bmp
309	real_b	real_bottomright_same_b	10	743	23	mask.bmp	blankscreen.bmp	wfd10.bmp	blankscreen.bmp	square.bmp
309	real_b	real_topright_same_b	11	675	23	mask.bmp	blankscreen.bmp	wmn10.bmp	blankscreen.bmp	square.bmp
309	real_b	real_bottomright_diff_b	12	785	18	mask.bmp	blankscreen.bmp	wfn8.bmp	blankscreen.bmp	circle.bmp
309	real_b	real_topleft_same_b	13	931	18	mask.bmp	blankscreen.bmp	wmn9.bmp	blankscreen.bmp	circle.bmp
309	real_b	real_topright_diff_b	14	624	23	mask.bmp	blankscreen.bmp	wfn6.bmp	blankscreen.bmp	square.bmp
309	real_b	real_topright_diff_b	15	1048	18	mask.bmp	blankscreen.bmp	wfd8.bmp	blankscreen.bmp	circle.bmp
309	real_b	real_bottomright_diff_b	16	862	23	mask.bmp	blankscreen.bmp	wmd7.bmp	blankscreen.bmp	square.bmp
309	real_b	real_bottomleft_diff_b	17	564	23	mask.bmp	blankscreen.bmp	wmn8.bmp	blankscreen.bmp	square.bmp
309	real_b	real_bottomright_same_b	18	720	18	mask.bmp	blankscreen.bmp	wfn10.bmp	blankscreen.bmp	circle.bmp
309	real_b	real_bottomleft_diff_b	19	1070	18	mask.bmp	blankscreen.bmp	wfn7.bmp	blankscreen.bmp	circle.bmp
309	real_b	real_bottomleft_same_b	20	667	23	mask.bmp	blankscreen.bmp	wfd9.bmp	blankscreen.bmp	square.bmp
309	real_c	real_bottomright_diff_c	1	942	18	mask.bmp	blankscreen.bmp	wfd5.bmp	blankscreen.bmp	circle.bmp
309	real_c	real_topright_diff_c	2	649	18	mask.bmp	blankscreen.bmp	wmd4.bmp	blankscreen.bmp	circle.bmp
309	real_c	real_bottomright_diff_c	3	769	23	mask.bmp	blankscreen.bmp	wmd3.bmp	blankscreen.bmp	square.bmp
309	real_c	real_bottomleft_diff_c	4	691	23	mask.bmp	blankscreen.bmp	wfn3.bmp	blankscreen.bmp	circle.bmp
309	real_c	real_topright_same_c	5	889	18	mask.bmp	blankscreen.bmp	wfn2.bmp	blankscreen.bmp	circle.bmp
309	real_c	real_topleft_diff_c	6	678	18	mask.bmp	blankscreen.bmp	wmn5.bmp	blankscreen.bmp	circle.bmp
309	real_c	real_topleft_same_c	7	604	18	mask.bmp	blankscreen.bmp	wfd1.bmp	blankscreen.bmp	circle.bmp
309	real_c	real_bottomleft_same_c	8	654	23	mask.bmp	blankscreen.bmp	wfd2.bmp	blankscreen.bmp	square.bmp
309	real_c	real_bottomleft_diff_c	9	781	23	mask.bmp	blankscreen.bmp	wmd5.bmp	blankscreen.bmp	square.bmp
309	real_c	real_bottomright_diff_c	10	1280	18	mask.bmp	blankscreen.bmp	wmn4.bmp	blankscreen.bmp	circle.bmp
309	real_c	real_bottomleft_same_c	11	772	23	mask.bmp	blankscreen.bmp	wmn1.bmp	blankscreen.bmp	square.bmp
309	real_c	real_bottomleft_diff_c	12	558	23	mask.bmp	blankscreen.bmp	wfd4.bmp	blankscreen.bmp	square.bmp
309	real_c	real_topleft_same_c	13	553	18	mask.bmp	blankscreen.bmp	wfn1.bmp	blankscreen.bmp	circle.bmp
309	real_c	real_bottomright_same_c	14	741	23	mask.bmp	blankscreen.bmp	wmd2.bmp	blankscreen.bmp	circle.bmp
309	real_c	real_topright_same_c	15	1072	23	mask.bmp	blankscreen.bmp	wmd1.bmp	blankscreen.bmp	square.bmp
309	real_c	real_topright_diff_c	16	693	18	mask.bmp	blankscreen.bmp	wmn3.bmp	blankscreen.bmp	circle.bmp
309	real_c	real_topleft_diff_c	17	1227	18	mask.bmp	blankscreen.bmp	wfn4.bmp	blankscreen.bmp	square.bmp
309	real_c	real_bottomright_same_c	18	1050	18	mask.bmp	blankscreen.bmp	wmn2.bmp	blankscreen.bmp	square.bmp
309	real_c	real_topright_diff_c	19	728	23	mask.bmp	blankscreen.bmp	wfn5.bmp	blankscreen.bmp	circle.bmp
309	real_c	real_topleft_diff_c	20	757	18	mask.bmp	blankscreen.bmp	wfd3.bmp	blankscreen.bmp	circle.bmp
309	real_d	real_bottomleft_same_d	1	981	23	mask.bmp	blankscreen.bmp	wfn6.bmp	blankscreen.bmp	square.bmp
309	real_d	real_bottomright_diff_d	2	1550	23	mask.bmp	blankscreen.bmp	wfd8.bmp	blankscreen.bmp	square.bmp
309	real_d	real_topleft_diff_d	3	952	23	mask.bmp	blankscreen.bmp	wfn10.bmp	blankscreen.bmp	square.bmp
309	real_d	real_topleft_same_d	4	738	18	mask.bmp	blankscreen.bmp	wmn6.bmp	blankscreen.bmp	circle.bmp
309	real_d	real_topright_same_d	5	622	23	mask.bmp	blankscreen.bmp	wfd6.bmp	blankscreen.bmp	circle.bmp
309	real_d	real_bottomright_diff_d	6	1302	23	mask.bmp	blankscreen.bmp	wmn10.bmp	blankscreen.bmp	square.bmp
309	real_d	real_bottomright_same_d	7	930	23	mask.bmp	blankscreen.bmp	wfn7.bmp	blankscreen.bmp	square.bmp
309	real_d	real_topright_same_d	8	758	18	mask.bmp	blankscreen.bmp	wmd7.bmp	blankscreen.bmp	circle.bmp
309	real_d	real_bottomleft_same_d	9	792	18	mask.bmp	blankscreen.bmp	wmn7.bmp	blankscreen.bmp	circle.bmp
309	real_d	real_bottomleft_diff_d	10	930	23	mask.bmp	blankscreen.bmp	wmd8.bmp	blankscreen.bmp	square.bmp
309	real_d	real_topright_diff_d	11	869	18	mask.bmp	blankscreen.bmp	wfn8.bmp	blankscreen.bmp	circle.bmp
309	real_d	real_bottomleft_diff_d	12	732	18	mask.bmp	blankscreen.bmp	wfd10.bmp	blankscreen.bmp	circle.bmp
309	real_d	real_topright_diff_d	13	1184	23	mask.bmp	blankscreen.bmp	wmd10.bmp	blankscreen.bmp	square.bmp
309	real_d	real_bottomright_diff_d	14	681	23	mask.bmp	blankscreen.bmp	wfn9.bmp	blankscreen.bmp	square.bmp
309	real_d	real_bottomright_same_d	15	760	23	mask.bmp	blankscreen.bmp	wfd7.bmp	blankscreen.bmp	square.bmp
309	real_d	real_topleft_same_d	16	738	23	mask.bmp	blankscreen.bmp	wmd6.bmp	blankscreen.bmp	square.bmp
309	real_d	real_bottomleft_diff_d	17	853	18	mask.bmp	blankscreen.bmp	wmn9.bmp	blankscreen.bmp	circle.bmp
309	real_d	real_topright_diff_d	18	1053	23	mask.bmp	blankscreen.bmp	wfd9.bmp	blankscreen.bmp	square.bmp
309	real_d	real_topleft_diff_d	19	1051	18	mask.bmp	blankscreen.bmp	wmn8.bmp	blankscreen.bmp	circle.bmp
309	real_d	real_topleft_diff_d	20	666	23	mask.bmp	blankscreen.bmp	wmd9.bmp	blankscreen.bmp	square.bmp
311	practice	practice_topleft_diff	1	817	18	mask.bmp	blankscreen.bmp	practice9.jpg	blankscreen.bmp	square.bmp
311	practice	practice_topleft_same	2	842	23	mask.bmp	blankscreen.bmp	practice2.jpg	blankscreen.bmp	circle.bmp
311	practice	practice_bottomright_diff	3	753	23	mask.bmp	blankscreen.bmp	practice12.jpg	blankscreen.bmp	circle.bmp
311	practice	practice_bottomleft_same	4	604	18	mask.bmp	blankscreen.bmp	practice5.jpg	blankscreen.bmp	square.bmp
311	practice	practice_bottomleft_diff	5	941	18	mask.bmp	blankscreen.bmp	practice11.jpg	blankscreen.bmp	square.bmp
311	practice	practice_bottomright_same	6	1368	23	mask.bmp	blankscreen.bmp	practice7.jpg	blankscreen.bmp	circle.bmp
311	practice	practice_topright_diff	7	1345	23	mask.bmp	blankscreen.bmp	practice10.jpg	blankscreen.bmp	square.bmp
311	practice	practice_topright_same	8	2371	18	mask.bmp	blankscreen.bmp	practice4.jpg	blankscreen.bmp	circle.bmp
311	practice	practice_bottomleft_same	9	1737	18	mask.bmp	blankscreen.bmp	practice6.jpg	blankscreen.bmp	circle.bmp
311	practice	practice_topright_same	10	1362	23	mask.bmp	blankscreen.bmp	practice3.jpg	blankscreen.bmp	square.bmp
311	practice	practice_bottomright_same	11	1299	23	mask.bmp	blankscreen.bmp	practice8.jpg	blankscreen.bmp	square.bmp
311	practice	practice_topleft_same	12	575	23	mask.bmp	blankscreen.bmp	practice1.jpg	blankscreen.bmp	square.bmp
311	real_a	real_bottomleft_diff_a	1	1570	18	mask.bmp	blankscreen.bmp	wfn1.bmp	blankscreen.bmp	circle.bmp
311	real_a	real_bottomleft_diff_a	2	586	18	mask.bmp	blankscreen.bmp	wmn2.bmp	blankscreen.bmp	circle.bmp
311	real_a	real_topright_diff_a	3	653	23	mask.bmp	blankscreen.bmp	wmn1.bmp	blankscreen.bmp	square.bmp
311	real_a	real_topleft_same_a	4	996	23	mask.bmp	blankscreen.bmp	wfn4.bmp	blankscreen.bmp	circle.bmp
311	real_a	real_topleft_diff_a	5	1181	23	mask.bmp	blankscreen.bmp	wfn3.bmp	blankscreen.bmp	circle.bmp
311	real_a	real_topright_diff_a	6	1382	23	mask.bmp	blankscreen.bmp	wmd3.bmp	blankscreen.bmp	square.bmp
311	real_a	real_topright_diff_a	7	1463	23	mask.bmp	blankscreen.bmp	wfd2.bmp	blankscreen.bmp	square.bmp
311	real_a	real_topleft_diff_a	8	435	18	mask.bmp	blankscreen.bmp	wmd2.bmp	blankscreen.bmp	circle.bmp
311	real_a	real_topright_same_a	9	1301	23	mask.bmp	blankscreen.bmp	wfd5.bmp	blankscreen.bmp	circle.bmp
