subject	blockcode	trialcode	trialnum	latency	response	stimulusitem1	stimulusitem2	stimulusitem3	stimulusitem4	stimulusitem5
99998	practice	practice_topleft_diff	1	3998	Ctrl+'Q'	mask.bmp	blankscreen.bmp	practice9.jpg	blankscreen.bmp	circle.bmp
999910	practice	practice_bottomleft_same	1	3150	Ctrl+'Q'	mask.bmp	blankscreen.bmp	practice5.jpg	blankscreen.bmp	circle.bmp
999911	practice	practice_topleft_same	1	2358	18	mask.bmp	blankscreen.bmp	practice2.jpg	blankscreen.bmp	circle.bmp
999911	practice	practice_topright_diff	2	845	18	mask.bmp	blankscreen.bmp	practice10.jpg	blankscreen.bmp	circle.bmp
999911	practice	practice_topright_same	3	226	18	mask.bmp	blankscreen.bmp	practice3.jpg	blankscreen.bmp	square.bmp
999911	practice	practice_bottomright_same	4	2072	23	mask.bmp	blankscreen.bmp	practice8.jpg	blankscreen.bmp	square.bmp
999911	practice	practice_bottomleft_same	5	715	23	mask.bmp	blankscreen.bmp	practice6.jpg	blankscreen.bmp	square.bmp
999911	practice	practice_topleft_diff	6	1045	18	mask.bmp	blankscreen.bmp	practice9.jpg	blankscreen.bmp	circle.bmp
999911	practice	practice_topright_same	7	842	23	mask.bmp	blankscreen.bmp	practice4.jpg	blankscreen.bmp	square.bmp
999911	practice	practice_bottomleft_diff	8	1039	18	mask.bmp	blankscreen.bmp	practice11.jpg	blankscreen.bmp	circle.bmp
999911	practice	practice_bottomleft_same	9	1156	18	mask.bmp	blankscreen.bmp	practice5.jpg	blankscreen.bmp	circle.bmp
999911	practice	practice_topleft_same	10	540	18	mask.bmp	blankscreen.bmp	practice1.jpg	blankscreen.bmp	circle.bmp
999911	practice	practice_bottomright_diff	11	1373	23	mask.bmp	blankscreen.bmp	practice12.jpg	blankscreen.bmp	square.bmp
999911	practice	practice_bottomright_same	12	909	23	mask.bmp	blankscreen.bmp	practice7.jpg	blankscreen.bmp	square.bmp
999911	real_a	real_bottomright_same_a	1	1411	23	mask.bmp	blankscreen.bmp	wmd5.bmp	blankscreen.bmp	square.bmp
999911	real_a	real_bottomright_diff_a	2	1913	18	mask.bmp	blankscreen.bmp	wfn2.bmp	blankscreen.bmp	circle.bmp
999911	real_a	real_topright_diff_a	3	1243	18	mask.bmp	blankscreen.bmp	wmd3.bmp	blankscreen.bmp	circle.bmp
999911	real_a	real_bottomright_diff_a	4	775	18	mask.bmp	blankscreen.bmp	wmn3.bmp	blankscreen.bmp	circle.bmp
999911	real_a	real_bottomleft_same_a	5	679	23	mask.bmp	blankscreen.bmp	wmd4.bmp	blankscreen.bmp	square.bmp
999911	real_a	real_bottomleft_same_a	6	675	18	mask.bmp	blankscreen.bmp	wfn5.bmp	blankscreen.bmp	circle.bmp
999911	real_a	real_bottomright_diff_a	7	1055	23	mask.bmp	blankscreen.bmp	wmd1.bmp	blankscreen.bmp	square.bmp
999911	real_a	real_topright_diff_a	8	843	18	mask.bmp	blankscreen.bmp	wmn1.bmp	blankscreen.bmp	circle.bmp
999911	real_a	real_bottomleft_diff_a	9	825	18	mask.bmp	blankscreen.bmp	wmn2.bmp	blankscreen.bmp	circle.bmp
999911	real_a	real_topleft_diff_a	10	702	18	mask.bmp	blankscreen.bmp	wfd1.bmp	blankscreen.bmp	circle.bmp
999911	real_a	real_bottomright_same_a	11	681	23	mask.bmp	blankscreen.bmp	wmn5.bmp	blankscreen.bmp	square.bmp
999911	real_a	real_topright_same_a	12	637	23	mask.bmp	blankscreen.bmp	wfd5.bmp	blankscreen.bmp	square.bmp
999911	real_a	real_topleft_diff_a	13	874	23	mask.bmp	blankscreen.bmp	wmd2.bmp	blankscreen.bmp	square.bmp
999911	real_a	real_topright_diff_a	14	733	23	mask.bmp	blankscreen.bmp	wfd2.bmp	blankscreen.bmp	square.bmp
999911	real_a	real_topright_same_a	15	647	18	mask.bmp	blankscreen.bmp	wmn4.bmp	blankscreen.bmp	circle.bmp
999911	real_a	real_bottomleft_diff_a	16	876	23	mask.bmp	blankscreen.bmp	wfn1.bmp	blankscreen.bmp	square.bmp
999911	real_a	real_topleft_diff_a	17	896	23	mask.bmp	blankscreen.bmp	wfn3.bmp	blankscreen.bmp	square.bmp
999911	real_a	real_topleft_same_a	18	563	18	mask.bmp	blankscreen.bmp	wfd4.bmp	blankscreen.bmp	circle.bmp
999911	real_a	real_topleft_same_a	19	939	18	mask.bmp	blankscreen.bmp	wfn4.bmp	blankscreen.bmp	circle.bmp
999911	real_a	real_bottomleft_diff_a	20	1564	23	mask.bmp	blankscreen.bmp	wfd3.bmp	blankscreen.bmp	square.bmp
999911	real_b	real_topleft_diff_b	1	1015	23	mask.bmp	blankscreen.bmp	wfd7.bmp	blankscreen.bmp	square.bmp
999911	real_b	real_bottomright_diff_b	2	781	18	mask.bmp	blankscreen.bmp	wfd6.bmp	blankscreen.bmp	circle.bmp
999911	real_b	real_bottomleft_same_b	3	725	18	mask.bmp	blankscreen.bmp	wmd10.bmp	blankscreen.bmp	circle.bmp
999911	real_b	real_topright_same_b	4	679	23	mask.bmp	blankscreen.bmp	wmn10.bmp	blankscreen.bmp	square.bmp
999911	real_b	real_bottomright_diff_b	5	859	18	mask.bmp	blankscreen.bmp	wmd7.bmp	blankscreen.bmp	circle.bmp
999911	real_b	real_topleft_same_b	6	679	18	mask.bmp	blankscreen.bmp	wmn9.bmp	blankscreen.bmp	circle.bmp
999911	real_b	real_bottomleft_diff_b	7	1107	23	mask.bmp	blankscreen.bmp	wmn8.bmp	blankscreen.bmp	square.bmp
999911	real_b	real_topleft_diff_b	8	1757	18	mask.bmp	blankscreen.bmp	wmn6.bmp	blankscreen.bmp	circle.bmp
999911	real_b	real_bottomright_same_b	9	1293	18	mask.bmp	blankscreen.bmp	wfn10.bmp	blankscreen.bmp	circle.bmp
999911	real_b	real_topright_same_b	10	703	23	mask.bmp	blankscreen.bmp	wfn9.bmp	blankscreen.bmp	square.bmp
999911	real_b	real_topright_diff_b	11	858	18	mask.bmp	blankscreen.bmp	wmn7.bmp	blankscreen.bmp	circle.bmp
999911	real_b	real_topleft_same_b	12	655	18	mask.bmp	blankscreen.bmp	wmd9.bmp	blankscreen.bmp	circle.bmp
999911	real_b	real_bottomright_same_b	13	739	23	mask.bmp	blankscreen.bmp	wfd10.bmp	blankscreen.bmp	square.bmp
999911	real_b	real_topright_diff_b	14	933	18	mask.bmp	blankscreen.bmp	wfn6.bmp	blankscreen.bmp	circle.bmp
999911	real_b	real_bottomright_diff_b	15	846	23	mask.bmp	blankscreen.bmp	wfn8.bmp	blankscreen.bmp	square.bmp
999911	real_b	real_bottomleft_diff_b	16	923	23	mask.bmp	blankscreen.bmp	wfn7.bmp	blankscreen.bmp	square.bmp
999911	real_b	real_topright_diff_b	17	941	23	mask.bmp	blankscreen.bmp	wfd8.bmp	blankscreen.bmp	square.bmp
999911	real_b	real_bottomleft_same_b	18	702	18	mask.bmp	blankscreen.bmp	wfd9.bmp	blankscreen.bmp	circle.bmp
999911	real_b	real_bottomleft_diff_b	19	1400	23	mask.bmp	blankscreen.bmp	wmd6.bmp	blankscreen.bmp	square.bmp
999911	real_b	real_topleft_diff_b	20	1438	23	mask.bmp	blankscreen.bmp	wmd8.bmp	blankscreen.bmp	square.bmp
999911	real_c	real_topright_diff_c	1	2132	18	mask.bmp	blankscreen.bmp	wmd4.bmp	blankscreen.bmp	circle.bmp
999911	real_c	real_bottomleft_same_c	2	1069	23	mask.bmp	blankscreen.bmp	wmn1.bmp	blankscreen.bmp	square.bmp
999911	real_c	real_bottomright_same_c	3	648	18	mask.bmp	blankscreen.bmp	wmn2.bmp	blankscreen.bmp	circle.bmp
999911	real_c	real_topright_same_c	4	982	18	mask.bmp	blankscreen.bmp	wmd1.bmp	blankscreen.bmp	square.bmp
999911	real_c	real_bottomleft_diff_c	5	1541	18	mask.bmp	blankscreen.bmp	wfn3.bmp	blankscreen.bmp	circle.bmp
999911	real_c	real_topright_same_c	6	750	18	mask.bmp	blankscreen.bmp	wfn2.bmp	blankscreen.bmp	circle.bmp
999911	real_c	real_bottomright_diff_c	7	902	18	mask.bmp	blankscreen.bmp	wfd5.bmp	blankscreen.bmp	circle.bmp
999911	real_c	real_topleft_diff_c	8	633	23	mask.bmp	blankscreen.bmp	wfd3.bmp	blankscreen.bmp	square.bmp
999911	real_c	real_bottomleft_diff_c	9	1182	23	mask.bmp	blankscreen.bmp	wmd5.bmp	blankscreen.bmp	square.bmp
999911	real_c	real_topright_diff_c	10	869	23	mask.bmp	blankscreen.bmp	wfn5.bmp	blankscreen.bmp	square.bmp
999911	real_c	real_bottomright_same_c	11	529	23	mask.bmp	blankscreen.bmp	wmd2.bmp	blankscreen.bmp	square.bmp
999911	real_c	real_topleft_same_c	12	603	23	mask.bmp	blankscreen.bmp	wfn1.bmp	blankscreen.bmp	square.bmp
999911	real_c	real_bottomright_diff_c	13	882	18	mask.bmp	blankscreen.bmp	wmn4.bmp	blankscreen.bmp	circle.bmp
999911	real_c	real_topleft_diff_c	14	1061	18	mask.bmp	blankscreen.bmp	wfn4.bmp	blankscreen.bmp	circle.bmp
999911	real_c	real_topleft_diff_c	15	1050	18	mask.bmp	blankscreen.bmp	wmn5.bmp	blankscreen.bmp	circle.bmp
999911	real_c	real_topright_diff_c	16	1134	18	mask.bmp	blankscreen.bmp	wmn3.bmp	blankscreen.bmp	circle.bmp
999911	real_c	real_bottomright_diff_c	17	1239	18	mask.bmp	blankscreen.bmp	wmd3.bmp	blankscreen.bmp	circle.bmp
999911	real_c	real_bottomleft_same_c	18	620	23	mask.bmp	blankscreen.bmp	wfd2.bmp	blankscreen.bmp	square.bmp
999911	real_c	real_bottomleft_diff_c	19	866	18	mask.bmp	blankscreen.bmp	wfd4.bmp	blankscreen.bmp	circle.bmp
999911	real_c	real_topleft_same_c	20	797	23	mask.bmp	blankscreen.bmp	wfd1.bmp	blankscreen.bmp	square.bmp
999911	real_d	real_bottomright_same_d	1	743	18	mask.bmp	blankscreen.bmp	wfn7.bmp	blankscreen.bmp	circle.bmp
999911	real_d	real_topleft_same_d	2	872	23	mask.bmp	blankscreen.bmp	wmn6.bmp	blankscreen.bmp	square.bmp
999911	real_d	real_bottomleft_diff_d	3	908	18	mask.bmp	blankscreen.bmp	wmn9.bmp	blankscreen.bmp	circle.bmp
999911	real_d	real_topleft_diff_d	4	1070	18	mask.bmp	blankscreen.bmp	wmn8.bmp	blankscreen.bmp	circle.bmp
999911	real_d	real_topright_diff_d	5	826	23	mask.bmp	blankscreen.bmp	wmd10.bmp	blankscreen.bmp	square.bmp
999911	real_d	real_topleft_diff_d	6	800	18	mask.bmp	blankscreen.bmp	wfn10.bmp	blankscreen.bmp	circle.bmp
999911	real_d	real_bottomleft_same_d	7	687	23	mask.bmp	blankscreen.bmp	wfn6.bmp	blankscreen.bmp	square.bmp
999911	real_d	real_bottomleft_diff_d	8	890	23	mask.bmp	blankscreen.bmp	wmd8.bmp	blankscreen.bmp	square.bmp
999911	real_d	real_topright_diff_d	9	804	23	mask.bmp	blankscreen.bmp	wfn8.bmp	blankscreen.bmp	square.bmp
999911	real_d	real_topright_same_d	10	675	18	mask.bmp	blankscreen.bmp	wfd6.bmp	blankscreen.bmp	circle.bmp
999911	real_d	real_bottomright_diff_d	11	1295	23	mask.bmp	blankscreen.bmp	wfd8.bmp	blankscreen.bmp	square.bmp
999911	real_d	real_topleft_diff_d	12	714	18	mask.bmp	blankscreen.bmp	wmd9.bmp	blankscreen.bmp	circle.bmp
999911	real_d	real_bottomleft_diff_d	13	1564	18	mask.bmp	blankscreen.bmp	wfd10.bmp	blankscreen.bmp	circle.bmp
999911	real_d	real_topright_diff_d	14	1004	23	mask.bmp	blankscreen.bmp	wfd9.bmp	blankscreen.bmp	square.bmp
999911	real_d	real_bottomright_diff_d	15	731	23	mask.bmp	blankscreen.bmp	wmn10.bmp	blankscreen.bmp	square.bmp
999911	real_d	real_topleft_same_d	16	741	18	mask.bmp	blankscreen.bmp	wmd6.bmp	blankscreen.bmp	circle.bmp
999911	real_d	real_bottomright_diff_d	17	862	23	mask.bmp	blankscreen.bmp	wfn9.bmp	blankscreen.bmp	square.bmp
999911	real_d	real_topright_same_d	18	690	18	mask.bmp	blankscreen.bmp	wmd7.bmp	blankscreen.bmp	circle.bmp
999911	real_d	real_bottomleft_same_d	19	877	18	mask.bmp	blankscreen.bmp	wmn7.bmp	blankscreen.bmp	circle.bmp
999911	real_d	real_bottomright_same_d	20	665	18	mask.bmp	blankscreen.bmp	wfd7.bmp	blankscreen.bmp	circle.bmp
43	practice	practice_topright_same	1	3536	23	mask.bmp	blankscreen.bmp	practice4.jpg	blankscreen.bmp	square.bmp
43	practice	practice_bottomleft_diff	2	863	23	mask.bmp	blankscreen.bmp	practice11.jpg	blankscreen.bmp	square.bmp
43	practice	practice_topleft_same	3	1276	23	mask.bmp	blankscreen.bmp	practice1.jpg	blankscreen.bmp	square.bmp
43	practice	practice_bottomright_same	4	991	18	mask.bmp	blankscreen.bmp	practice8.jpg	blankscreen.bmp	circle.bmp
43	practice	practice_topleft_diff	5	758	23	mask.bmp	blankscreen.bmp	practice9.jpg	blankscreen.bmp	square.bmp
43	practice	practice_topleft_same	6	942	18	mask.bmp	blankscreen.bmp	practice2.jpg	blankscreen.bmp	circle.bmp
43	practice	practice_topright_same	7	855	23	mask.bmp	blankscreen.bmp	practice3.jpg	blankscreen.bmp	square.bmp
43	practice	practice_bottomright_same	8	1012	23	mask.bmp	blankscreen.bmp	practice7.jpg	blankscreen.bmp	square.bmp
43	practice	practice_topright_diff	9	642	18	mask.bmp	blankscreen.bmp	practice10.jpg	blankscreen.bmp	circle.bmp
43	practice	practice_bottomright_diff	10	567	23	mask.bmp	blankscreen.bmp	practice12.jpg	blankscreen.bmp	square.bmp
43	practice	practice_bottomleft_same	11	647	18	mask.bmp	blankscreen.bmp	practice6.jpg	blankscreen.bmp	circle.bmp
43	practice	practice_bottomleft_same	12	629	23	mask.bmp	blankscreen.bmp	practice5.jpg	blankscreen.bmp	square.bmp
43	real_a	real_topleft_diff_a	1	1207	23	mask.bmp	blankscreen.bmp	wmd2.bmp	blankscreen.bmp	square.bmp
43	real_a	real_bottomright_diff_a	2	957	18	mask.bmp	blankscreen.bmp	wmn3.bmp	blankscreen.bmp	square.bmp
43	real_a	real_topright_same_a	3	774	23	mask.bmp	blankscreen.bmp	wmn4.bmp	blankscreen.bmp	square.bmp
43	real_a	real_bottomleft_diff_a	4	950	18	mask.bmp	blankscreen.bmp	wfn1.bmp	blankscreen.bmp	circle.bmp
43	real_a	real_topleft_diff_a	5	1150	23	mask.bmp	blankscreen.bmp	wfd1.bmp	blankscreen.bmp	square.bmp
43	real_a	real_topleft_same_a	6	1126	18	mask.bmp	blankscreen.bmp	wfd4.bmp	blankscreen.bmp	circle.bmp
43	real_a	real_topright_diff_a	7	2152	23	mask.bmp	blankscreen.bmp	wfd2.bmp	blankscreen.bmp	square.bmp
43	real_a	real_bottomright_same_a	8	919	23	mask.bmp	blankscreen.bmp	wmn5.bmp	blankscreen.bmp	square.bmp
43	real_a	real_topright_diff_a	9	585	18	mask.bmp	blankscreen.bmp	wmn1.bmp	blankscreen.bmp	circle.bmp
43	real_a	real_topleft_diff_a	10	696	18	mask.bmp	blankscreen.bmp	wfn3.bmp	blankscreen.bmp	circle.bmp
43	real_a	real_bottomright_same_a	11	715	23	mask.bmp	blankscreen.bmp	wmd5.bmp	blankscreen.bmp	square.bmp
43	real_a	real_topright_diff_a	12	918	23	mask.bmp	blankscreen.bmp	wmd3.bmp	blankscreen.bmp	square.bmp
43	real_a	real_bottomright_diff_a	13	584	23	mask.bmp	blankscreen.bmp	wmd1.bmp	blankscreen.bmp	square.bmp
43	real_a	real_bottomleft_diff_a	14	783	18	mask.bmp	blankscreen.bmp	wfd3.bmp	blankscreen.bmp	circle.bmp
43	real_a	real_topleft_same_a	15	950	23	mask.bmp	blankscreen.bmp	wfn4.bmp	blankscreen.bmp	square.bmp
43	real_a	real_bottomleft_same_a	16	806	18	mask.bmp	blankscreen.bmp	wfn5.bmp	blankscreen.bmp	circle.bmp
43	real_a	real_bottomleft_same_a	17	773	18	mask.bmp	blankscreen.bmp	wmd4.bmp	blankscreen.bmp	circle.bmp
43	real_a	real_topright_same_a	18	973	18	mask.bmp	blankscreen.bmp	wfd5.bmp	blankscreen.bmp	circle.bmp
43	real_a	real_bottomright_diff_a	19	812	18	mask.bmp	blankscreen.bmp	wfn2.bmp	blankscreen.bmp	circle.bmp
43	real_a	real_bottomleft_diff_a	20	755	23	mask.bmp	blankscreen.bmp	wmn2.bmp	blankscreen.bmp	square.bmp
43	real_b	real_topleft_diff_b	1	810	18	mask.bmp	blankscreen.bmp	wmn6.bmp	blankscreen.bmp	circle.bmp
43	real_b	real_bottomright_diff_b	2	584	18	mask.bmp	blankscreen.bmp	wfd6.bmp	blankscreen.bmp	circle.bmp
43	real_b	real_bottomright_diff_b	3	832	18	mask.bmp	blankscreen.bmp	wmd7.bmp	blankscreen.bmp	circle.bmp
43	real_b	real_topright_diff_b	4	630	23	mask.bmp	blankscreen.bmp	wfd8.bmp	blankscreen.bmp	square.bmp
43	real_b	real_bottomleft_diff_b	5	683	23	mask.bmp	blankscreen.bmp	wmn8.bmp	blankscreen.bmp	square.bmp
43	real_b	real_bottomright_same_b	6	751	18	mask.bmp	blankscreen.bmp	wfd10.bmp	blankscreen.bmp	circle.bmp
43	real_b	real_topleft_diff_b	7	623	23	mask.bmp	blankscreen.bmp	wmd8.bmp	blankscreen.bmp	square.bmp
43	real_b	real_topleft_same_b	8	677	23	mask.bmp	blankscreen.bmp	wmd9.bmp	blankscreen.bmp	square.bmp
43	real_b	real_topleft_diff_b	9	905	18	mask.bmp	blankscreen.bmp	wfd7.bmp	blankscreen.bmp	circle.bmp
43	real_b	real_topright_diff_b	10	795	23	mask.bmp	blankscreen.bmp	wmn7.bmp	blankscreen.bmp	square.bmp
43	real_b	real_bottomright_same_b	11	1027	23	mask.bmp	blankscreen.bmp	wfn10.bmp	blankscreen.bmp	square.bmp
43	real_b	real_bottomleft_diff_b	12	808	18	mask.bmp	blankscreen.bmp	wmd6.bmp	blankscreen.bmp	circle.bmp
43	real_b	real_bottomleft_same_b	13	663	18	mask.bmp	blankscreen.bmp	wfd9.bmp	blankscreen.bmp	circle.bmp
43	real_b	real_topright_same_b	14	1075	18	mask.bmp	blankscreen.bmp	wfn9.bmp	blankscreen.bmp	circle.bmp
43	real_b	real_bottomright_diff_b	15	647	23	mask.bmp	blankscreen.bmp	wfn8.bmp	blankscreen.bmp	square.bmp
43	real_b	real_bottomleft_same_b	16	988	23	mask.bmp	blankscreen.bmp	wmd10.bmp	blankscreen.bmp	square.bmp
43	real_b	real_topright_diff_b	17	611	18	mask.bmp	blankscreen.bmp	wfn6.bmp	blankscreen.bmp	circle.bmp
43	real_b	real_bottomleft_diff_b	18	1330	23	mask.bmp	blankscreen.bmp	wfn7.bmp	blankscreen.bmp	square.bmp
43	real_b	real_topleft_same_b	19	739	23	mask.bmp	blankscreen.bmp	wmn9.bmp	blankscreen.bmp	square.bmp
43	real_b	real_topright_same_b	20	596	23	mask.bmp	blankscreen.bmp	wmn10.bmp	blankscreen.bmp	square.bmp
43	real_c	real_topleft_same_c	1	1092	18	mask.bmp	blankscreen.bmp	wfn1.bmp	blankscreen.bmp	circle.bmp
43	real_c	real_bottomright_diff_c	2	991	18	mask.bmp	blankscreen.bmp	wmd3.bmp	blankscreen.bmp	circle.bmp
43	real_c	real_topright_diff_c	3	1414	23	mask.bmp	blankscreen.bmp	wfn5.bmp	blankscreen.bmp	square.bmp
43	real_c	real_topright_diff_c	4	900	23	mask.bmp	blankscreen.bmp	wmd4.bmp	blankscreen.bmp	square.bmp
43	real_c	real_topleft_diff_c	5	783	18	mask.bmp	blankscreen.bmp	wfn4.bmp	blankscreen.bmp	circle.bmp
43	real_c	real_bottomleft_same_c	6	1430	23	mask.bmp	blankscreen.bmp	wfd2.bmp	blankscreen.bmp	square.bmp
43	real_c	real_bottomleft_diff_c	7	971	23	mask.bmp	blankscreen.bmp	wfd4.bmp	blankscreen.bmp	square.bmp
43	real_c	real_bottomright_same_c	8	1155	18	mask.bmp	blankscreen.bmp	wmd2.bmp	blankscreen.bmp	circle.bmp
43	real_c	real_topleft_diff_c	9	1155	18	mask.bmp	blankscreen.bmp	wmn5.bmp	blankscreen.bmp	circle.bmp
43	real_c	real_bottomleft_diff_c	10	619	18	mask.bmp	blankscreen.bmp	wmd5.bmp	blankscreen.bmp	circle.bmp
43	real_c	real_bottomleft_diff_c	11	633	18	mask.bmp	blankscreen.bmp	wfn3.bmp	blankscreen.bmp	circle.bmp
43	real_c	real_topleft_diff_c	12	830	18	mask.bmp	blankscreen.bmp	wfd3.bmp	blankscreen.bmp	circle.bmp
43	real_c	real_bottomleft_same_c	13	492	23	mask.bmp	blankscreen.bmp	wmn1.bmp	blankscreen.bmp	square.bmp
43	real_c	real_topright_same_c	14	639	18	mask.bmp	blankscreen.bmp	wmd1.bmp	blankscreen.bmp	circle.bmp
43	real_c	real_topright_diff_c	15	693	23	mask.bmp	blankscreen.bmp	wmn3.bmp	blankscreen.bmp	square.bmp
43	real_c	real_bottomright_diff_c	16	680	23	mask.bmp	blankscreen.bmp	wmn4.bmp	blankscreen.bmp	square.bmp
43	real_c	real_bottomright_same_c	17	620	18	mask.bmp	blankscreen.bmp	wmn2.bmp	blankscreen.bmp	circle.bmp
43	real_c	real_bottomright_diff_c	18	722	18	mask.bmp	blankscreen.bmp	wfd5.bmp	blankscreen.bmp	circle.bmp
43	real_c	real_topleft_same_c	19	636	23	mask.bmp	blankscreen.bmp	wfd1.bmp	blankscreen.bmp	square.bmp
43	real_c	real_topright_same_c	20	1345	23	mask.bmp	blankscreen.bmp	wfn2.bmp	blankscreen.bmp	square.bmp
43	real_d	real_bottomright_diff_d	1	870	18	mask.bmp	blankscreen.bmp	wmn10.bmp	blankscreen.bmp	circle.bmp
43	real_d	real_topright_diff_d	2	1089	23	mask.bmp	blankscreen.bmp	wfn8.bmp	blankscreen.bmp	square.bmp
43	real_d	real_bottomright_diff_d	3	676	23	mask.bmp	blankscreen.bmp	wfd8.bmp	blankscreen.bmp	square.bmp
43	real_d	real_topleft_diff_d	4	952	23	mask.bmp	blankscreen.bmp	wmn8.bmp	blankscreen.bmp	square.bmp
43	real_d	real_bottomright_diff_d	5	1249	23	mask.bmp	blankscreen.bmp	wfn9.bmp	blankscreen.bmp	square.bmp
43	real_d	real_topright_same_d	6	694	18	mask.bmp	blankscreen.bmp	wfd6.bmp	blankscreen.bmp	circle.bmp
43	real_d	real_bottomleft_same_d	7	1393	23	mask.bmp	blankscreen.bmp	wmn7.bmp	blankscreen.bmp	square.bmp
43	real_d	real_bottomleft_diff_d	8	695	23	mask.bmp	blankscreen.bmp	wfd10.bmp	blankscreen.bmp	square.bmp
43	real_d	real_bottomleft_diff_d	9	611	18	mask.bmp	blankscreen.bmp	wmn9.bmp	blankscreen.bmp	circle.bmp
43	real_d	real_bottomright_same_d	10	905	23	mask.bmp	blankscreen.bmp	wfd7.bmp	blankscreen.bmp	square.bmp
43	real_d	real_bottomleft_diff_d	11	796	18	mask.bmp	blankscreen.bmp	wmd8.bmp	blankscreen.bmp	circle.bmp
43	real_d	real_topright_diff_d	12	843	18	mask.bmp	blankscreen.bmp	wmd10.bmp	blankscreen.bmp	circle.bmp
43	real_d	real_topleft_diff_d	13	824	18	mask.bmp	blankscreen.bmp	wmd9.bmp	blankscreen.bmp	circle.bmp
43	real_d	real_bottomright_same_d	14	590	23	mask.bmp	blankscreen.bmp	wfn7.bmp	blankscreen.bmp	square.bmp
43	real_d	real_topleft_diff_d	15	1317	18	mask.bmp	blankscreen.bmp	wfn10.bmp	blankscreen.bmp	circle.bmp
43	real_d	real_topright_diff_d	16	1446	18	mask.bmp	blankscreen.bmp	wfd9.bmp	blankscreen.bmp	circle.bmp
43	real_d	real_topright_same_d	17	723	18	mask.bmp	blankscreen.bmp	wmd7.bmp	blankscreen.bmp	circle.bmp
43	real_d	real_bottomleft_same_d	18	701	23	mask.bmp	blankscreen.bmp	wfn6.bmp	blankscreen.bmp	square.bmp
43	real_d	real_topleft_same_d	19	519	23	mask.bmp	blankscreen.bmp	wmn6.bmp	blankscreen.bmp	square.bmp
43	real_d	real_topleft_same_d	20	602	18	mask.bmp	blankscreen.bmp	wmd6.bmp	blankscreen.bmp	circle.bmp
45	practice	practice_bottomleft_same	1	882	23	mask.bmp	blankscreen.bmp	practice5.jpg	blankscreen.bmp	square.bmp
45	practice	practice_bottomright_same	2	709	18	mask.bmp	blankscreen.bmp	practice8.jpg	blankscreen.bmp	circle.bmp
45	practice	practice_topleft_same	3	616	18	mask.bmp	blankscreen.bmp	practice1.jpg	blankscreen.bmp	circle.bmp
45	practice	practice_bottomleft_diff	4	750	18	mask.bmp	blankscreen.bmp	practice11.jpg	blankscreen.bmp	square.bmp
45	practice	practice_topright_same	5	574	23	mask.bmp	blankscreen.bmp	practice3.jpg	blankscreen.bmp	square.bmp
45	practice	practice_bottomright_same	6	470	23	mask.bmp	blankscreen.bmp	practice7.jpg	blankscreen.bmp	circle.bmp
45	practice	practice_bottomright_diff	7	610	23	mask.bmp	blankscreen.bmp	practice12.jpg	blankscreen.bmp	square.bmp
45	practice	practice_topright_diff	8	561	23	mask.bmp	blankscreen.bmp	practice10.jpg	blankscreen.bmp	square.bmp
45	practice	practice_topleft_diff	9	698	18	mask.bmp	blankscreen.bmp	practice9.jpg	blankscreen.bmp	circle.bmp
45	practice	practice_topright_same	10	469	18	mask.bmp	blankscreen.bmp	practice4.jpg	blankscreen.bmp	square.bmp
45	practice	practice_bottomleft_same	11	609	23	mask.bmp	blankscreen.bmp	practice6.jpg	blankscreen.bmp	square.bmp
45	practice	practice_topleft_same	12	728	18	mask.bmp	blankscreen.bmp	practice2.jpg	blankscreen.bmp	circle.bmp
45	real_a	real_topleft_same_a	1	677	23	mask.bmp	blankscreen.bmp	wfn4.bmp	blankscreen.bmp	square.bmp
45	real_a	real_bottomright_same_a	2	505	23	mask.bmp	blankscreen.bmp	wmn5.bmp	blankscreen.bmp	square.bmp
45	real_a	real_bottomleft_diff_a	3	651	23	mask.bmp	blankscreen.bmp	wmn2.bmp	blankscreen.bmp	square.bmp
45	real_a	real_topright_same_a	4	536	18	mask.bmp	blankscreen.bmp	wmn4.bmp	blankscreen.bmp	circle.bmp
45	real_a	real_bottomright_diff_a	5	561	23	mask.bmp	blankscreen.bmp	wmd1.bmp	blankscreen.bmp	square.bmp
45	real_a	real_bottomleft_diff_a	6	690	18	mask.bmp	blankscreen.bmp	wfd3.bmp	blankscreen.bmp	circle.bmp
45	real_a	real_topleft_diff_a	7	589	18	mask.bmp	blankscreen.bmp	wfd1.bmp	blankscreen.bmp	circle.bmp
45	real_a	real_bottomleft_same_a	8	437	18	mask.bmp	blankscreen.bmp	wmd4.bmp	blankscreen.bmp	circle.bmp
45	real_a	real_topright_diff_a	9	522	18	mask.bmp	blankscreen.bmp	wfd2.bmp	blankscreen.bmp	circle.bmp
45	real_a	real_topright_diff_a	10	492	18	mask.bmp	blankscreen.bmp	wmd3.bmp	blankscreen.bmp	circle.bmp
45	real_a	real_bottomright_same_a	11	560	23	mask.bmp	blankscreen.bmp	wmd5.bmp	blankscreen.bmp	square.bmp
45	real_a	real_topleft_diff_a	12	664	23	mask.bmp	blankscreen.bmp	wmd2.bmp	blankscreen.bmp	square.bmp
45	real_a	real_bottomright_diff_a	13	557	23	mask.bmp	blankscreen.bmp	wmn3.bmp	blankscreen.bmp	square.bmp
45	real_a	real_bottomleft_diff_a	14	518	18	mask.bmp	blankscreen.bmp	wfn1.bmp	blankscreen.bmp	circle.bmp
45	real_a	real_topleft_diff_a	15	407	23	mask.bmp	blankscreen.bmp	wfn3.bmp	blankscreen.bmp	square.bmp
45	real_a	real_topright_same_a	16	430	23	mask.bmp	blankscreen.bmp	wfd5.bmp	blankscreen.bmp	square.bmp
45	real_a	real_topleft_same_a	17	445	18	mask.bmp	blankscreen.bmp	wfd4.bmp	blankscreen.bmp	circle.bmp
45	real_a	real_topright_diff_a	18	434	18	mask.bmp	blankscreen.bmp	wmn1.bmp	blankscreen.bmp	circle.bmp
45	real_a	real_bottomleft_same_a	19	543	23	mask.bmp	blankscreen.bmp	wfn5.bmp	blankscreen.bmp	square.bmp
45	real_a	real_bottomright_diff_a	20	601	18	mask.bmp	blankscreen.bmp	wfn2.bmp	blankscreen.bmp	circle.bmp
45	real_b	real_topright_diff_b	1	452	18	mask.bmp	blankscreen.bmp	wfn6.bmp	blankscreen.bmp	circle.bmp
45	real_b	real_topleft_same_b	2	448	23	mask.bmp	blankscreen.bmp	wmn9.bmp	blankscreen.bmp	square.bmp
45	real_b	real_topleft_diff_b	3	701	18	mask.bmp	blankscreen.bmp	wfd7.bmp	blankscreen.bmp	circle.bmp
45	real_b	real_topright_same_b	4	592	23	mask.bmp	blankscreen.bmp	wmn10.bmp	blankscreen.bmp	square.bmp
45	real_b	real_bottomleft_diff_b	5	607	23	mask.bmp	blankscreen.bmp	wmd6.bmp	blankscreen.bmp	circle.bmp
45	real_b	real_bottomright_diff_b	6	494	18	mask.bmp	blankscreen.bmp	wfd6.bmp	blankscreen.bmp	circle.bmp
45	real_b	real_topright_same_b	7	473	23	mask.bmp	blankscreen.bmp	wfn9.bmp	blankscreen.bmp	square.bmp
45	real_b	real_bottomleft_diff_b	8	581	23	mask.bmp	blankscreen.bmp	wfn7.bmp	blankscreen.bmp	square.bmp
45	real_b	real_bottomright_same_b	9	446	23	mask.bmp	blankscreen.bmp	wfn10.bmp	blankscreen.bmp	square.bmp
45	real_b	real_topleft_diff_b	10	483	18	mask.bmp	blankscreen.bmp	wmd8.bmp	blankscreen.bmp	circle.bmp
45	real_b	real_bottomright_same_b	11	406	18	mask.bmp	blankscreen.bmp	wfd10.bmp	blankscreen.bmp	circle.bmp
45	real_b	real_topleft_same_b	12	389	18	mask.bmp	blankscreen.bmp	wmd9.bmp	blankscreen.bmp	circle.bmp
45	real_b	real_bottomright_diff_b	13	405	18	mask.bmp	blankscreen.bmp	wfn8.bmp	blankscreen.bmp	circle.bmp
45	real_b	real_topright_diff_b	14	419	23	mask.bmp	blankscreen.bmp	wmn7.bmp	blankscreen.bmp	square.bmp
45	real_b	real_bottomleft_diff_b	15	393	23	mask.bmp	blankscreen.bmp	wmn8.bmp	blankscreen.bmp	square.bmp
45	real_b	real_bottomright_diff_b	16	377	18	mask.bmp	blankscreen.bmp	wmd7.bmp	blankscreen.bmp	circle.bmp
45	real_b	real_bottomleft_same_b	17	473	18	mask.bmp	blankscreen.bmp	wmd10.bmp	blankscreen.bmp	circle.bmp
45	real_b	real_topright_diff_b	18	589	23	mask.bmp	blankscreen.bmp	wfd8.bmp	blankscreen.bmp	square.bmp
45	real_b	real_bottomleft_same_b	19	516	23	mask.bmp	blankscreen.bmp	wfd9.bmp	blankscreen.bmp	square.bmp
45	real_b	real_topleft_diff_b	20	534	18	mask.bmp	blankscreen.bmp	wmn6.bmp	blankscreen.bmp	circle.bmp
45	real_c	real_topleft_diff_c	1	756	23	mask.bmp	blankscreen.bmp	wfn4.bmp	blankscreen.bmp	square.bmp
45	real_c	real_bottomleft_diff_c	2	428	23	mask.bmp	blankscreen.bmp	wmd5.bmp	blankscreen.bmp	square.bmp
45	real_c	real_bottomleft_diff_c	3	467	18	mask.bmp	blankscreen.bmp	wfn3.bmp	blankscreen.bmp	circle.bmp
45	real_c	real_bottomright_diff_c	4	615	18	mask.bmp	blankscreen.bmp	wmn4.bmp	blankscreen.bmp	circle.bmp
45	real_c	real_topleft_same_c	5	421	18	mask.bmp	blankscreen.bmp	wfn1.bmp	blankscreen.bmp	circle.bmp
45	real_c	real_bottomright_diff_c	6	451	23	mask.bmp	blankscreen.bmp	wfd5.bmp	blankscreen.bmp	square.bmp
45	real_c	real_bottomright_same_c	7	432	18	mask.bmp	blankscreen.bmp	wmn2.bmp	blankscreen.bmp	circle.bmp
45	real_c	real_bottomleft_same_c	8	589	23	mask.bmp	blankscreen.bmp	wmn1.bmp	blankscreen.bmp	square.bmp
45	real_c	real_topleft_diff_c	9	484	23	mask.bmp	blankscreen.bmp	wmn5.bmp	blankscreen.bmp	square.bmp
45	real_c	real_bottomright_diff_c	10	608	23	mask.bmp	blankscreen.bmp	wmd3.bmp	blankscreen.bmp	square.bmp
45	real_c	real_topright_diff_c	11	478	23	mask.bmp	blankscreen.bmp	wmd4.bmp	blankscreen.bmp	square.bmp
45	real_c	real_topright_diff_c	12	538	18	mask.bmp	blankscreen.bmp	wmn3.bmp	blankscreen.bmp	circle.bmp
45	real_c	real_topright_same_c	13	412	18	mask.bmp	blankscreen.bmp	wmd1.bmp	blankscreen.bmp	circle.bmp
45	real_c	real_topright_same_c	14	387	23	mask.bmp	blankscreen.bmp	wfn2.bmp	blankscreen.bmp	square.bmp
45	real_c	real_bottomleft_same_c	15	402	18	mask.bmp	blankscreen.bmp	wfd2.bmp	blankscreen.bmp	circle.bmp
45	real_c	real_topleft_diff_c	16	489	18	mask.bmp	blankscreen.bmp	wfd3.bmp	blankscreen.bmp	circle.bmp
45	real_c	real_topleft_same_c	17	348	18	mask.bmp	blankscreen.bmp	wfd1.bmp	blankscreen.bmp	circle.bmp
45	real_c	real_bottomright_same_c	18	406	18	mask.bmp	blankscreen.bmp	wmd2.bmp	blankscreen.bmp	circle.bmp
45	real_c	real_topright_diff_c	19	477	18	mask.bmp	blankscreen.bmp	wfn5.bmp	blankscreen.bmp	circle.bmp
45	real_c	real_bottomleft_diff_c	20	377	18	mask.bmp	blankscreen.bmp	wfd4.bmp	blankscreen.bmp	circle.bmp
45	real_d	real_bottomleft_same_d	1	501	23	mask.bmp	blankscreen.bmp	wmn7.bmp	blankscreen.bmp	square.bmp
45	real_d	real_topright_diff_d	2	336	18	mask.bmp	blankscreen.bmp	wfn8.bmp	blankscreen.bmp	circle.bmp
45	real_d	real_topright_diff_d	3	409	23	mask.bmp	blankscreen.bmp	wfd9.bmp	blankscreen.bmp	square.bmp
45	real_d	real_bottomleft_same_d	4	352	18	mask.bmp	blankscreen.bmp	wfn6.bmp	blankscreen.bmp	circle.bmp
45	real_d	real_bottomright_diff_d	5	497	23	mask.bmp	blankscreen.bmp	wfd8.bmp	blankscreen.bmp	square.bmp
45	real_d	real_bottomleft_diff_d	6	420	18	mask.bmp	blankscreen.bmp	wfd10.bmp	blankscreen.bmp	circle.bmp
45	real_d	real_topleft_diff_d	7	426	23	mask.bmp	blankscreen.bmp	wmd9.bmp	blankscreen.bmp	square.bmp
45	real_d	real_topleft_diff_d	8	465	18	mask.bmp	blankscreen.bmp	wfn10.bmp	blankscreen.bmp	circle.bmp
45	real_d	real_bottomright_diff_d	9	326	18	mask.bmp	blankscreen.bmp	wfn9.bmp	blankscreen.bmp	circle.bmp
45	real_d	real_topleft_diff_d	10	288	18	mask.bmp	blankscreen.bmp	wmn8.bmp	blankscreen.bmp	square.bmp
45	real_d	real_topright_diff_d	11	587	23	mask.bmp	blankscreen.bmp	wmd10.bmp	blankscreen.bmp	square.bmp
45	real_d	real_bottomright_same_d	12	546	23	mask.bmp	blankscreen.bmp	wfn7.bmp	blankscreen.bmp	square.bmp
45	real_d	real_bottomright_same_d	13	388	23	mask.bmp	blankscreen.bmp	wfd7.bmp	blankscreen.bmp	square.bmp
45	real_d	real_topright_same_d	14	427	18	mask.bmp	blankscreen.bmp	wfd6.bmp	blankscreen.bmp	circle.bmp
45	real_d	real_bottomleft_diff_d	15	401	18	mask.bmp	blankscreen.bmp	wmn9.bmp	blankscreen.bmp	circle.bmp
45	real_d	real_topleft_same_d	16	432	23	mask.bmp	blankscreen.bmp	wmn6.bmp	blankscreen.bmp	square.bmp
45	real_d	real_topright_same_d	17	390	18	mask.bmp	blankscreen.bmp	wmd7.bmp	blankscreen.bmp	circle.bmp
45	real_d	real_bottomleft_diff_d	18	389	18	mask.bmp	blankscreen.bmp	wmd8.bmp	blankscreen.bmp	square.bmp
45	real_d	real_bottomright_diff_d	19	517	23	mask.bmp	blankscreen.bmp	wmn10.bmp	blankscreen.bmp	square.bmp
45	real_d	real_topleft_same_d	20	431	18	mask.bmp	blankscreen.bmp	wmd6.bmp	blankscreen.bmp	circle.bmp
51	practice	practice_topright_same	1	1938	23	mask.bmp	blankscreen.bmp	practice4.jpg	blankscreen.bmp	square.bmp
51	practice	practice_topleft_same	2	498	23	mask.bmp	blankscreen.bmp	practice2.jpg	blankscreen.bmp	square.bmp
51	practice	practice_bottomleft_same	3	550	23	mask.bmp	blankscreen.bmp	practice5.jpg	blankscreen.bmp	square.bmp
51	practice	practice_bottomleft_diff	4	766	18	mask.bmp	blankscreen.bmp	practice11.jpg	blankscreen.bmp	circle.bmp
51	practice	practice_bottomleft_same	5	734	23	mask.bmp	blankscreen.bmp	practice6.jpg	blankscreen.bmp	square.bmp
51	practice	practice_bottomright_diff	6	735	18	mask.bmp	blankscreen.bmp	practice12.jpg	blankscreen.bmp	circle.bmp
51	practice	practice_topright_diff	7	785	23	mask.bmp	blankscreen.bmp	practice10.jpg	blankscreen.bmp	square.bmp
51	practice	practice_topright_same	8	544	23	mask.bmp	blankscreen.bmp	practice3.jpg	blankscreen.bmp	square.bmp
51	practice	practice_topleft_diff	9	737	18	mask.bmp	blankscreen.bmp	practice9.jpg	blankscreen.bmp	circle.bmp
51	practice	practice_topleft_same	10	490	18	mask.bmp	blankscreen.bmp	practice1.jpg	blankscreen.bmp	circle.bmp
51	practice	practice_bottomright_same	11	478	18	mask.bmp	blankscreen.bmp	practice7.jpg	blankscreen.bmp	circle.bmp
51	practice	practice_bottomright_same	12	466	18	mask.bmp	blankscreen.bmp	practice8.jpg	blankscreen.bmp	circle.bmp
51	real_a	real_topright_diff_a	1	787	23	mask.bmp	blankscreen.bmp	wfd2.bmp	blankscreen.bmp	square.bmp
51	real_a	real_bottomleft_diff_a	2	1091	23	mask.bmp	blankscreen.bmp	wfn1.bmp	blankscreen.bmp	square.bmp
51	real_a	real_bottomright_diff_a	3	829	18	mask.bmp	blankscreen.bmp	wmd1.bmp	blankscreen.bmp	circle.bmp
51	real_a	real_bottomright_diff_a	4	51	23	mask.bmp	blankscreen.bmp	wmn3.bmp	blankscreen.bmp	circle.bmp
51	real_a	real_topright_diff_a	5	848	18	mask.bmp	blankscreen.bmp	wmn1.bmp	blankscreen.bmp	circle.bmp
51	real_a	real_topleft_diff_a	6	581	23	mask.bmp	blankscreen.bmp	wfn3.bmp	blankscreen.bmp	square.bmp
51	real_a	real_bottomright_same_a	7	773	18	mask.bmp	blankscreen.bmp	wmn5.bmp	blankscreen.bmp	circle.bmp
51	real_a	real_bottomleft_diff_a	8	709	18	mask.bmp	blankscreen.bmp	wfd3.bmp	blankscreen.bmp	circle.bmp
51	real_a	real_bottomleft_same_a	9	816	23	mask.bmp	blankscreen.bmp	wfn5.bmp	blankscreen.bmp	square.bmp
51	real_a	real_topright_diff_a	10	934	18	mask.bmp	blankscreen.bmp	wmd3.bmp	blankscreen.bmp	circle.bmp
51	real_a	real_topleft_same_a	11	935	23	mask.bmp	blankscreen.bmp	wfd4.bmp	blankscreen.bmp	square.bmp
51	real_a	real_bottomleft_diff_a	12	752	18	mask.bmp	blankscreen.bmp	wmn2.bmp	blankscreen.bmp	square.bmp
51	real_a	real_bottomleft_same_a	13	712	23	mask.bmp	blankscreen.bmp	wmd4.bmp	blankscreen.bmp	square.bmp
51	real_a	real_topleft_diff_a	14	747	18	mask.bmp	blankscreen.bmp	wmd2.bmp	blankscreen.bmp	circle.bmp
51	real_a	real_topright_same_a	15	564	18	mask.bmp	blankscreen.bmp	wmn4.bmp	blankscreen.bmp	circle.bmp
51	real_a	real_topright_same_a	16	653	18	mask.bmp	blankscreen.bmp	wfd5.bmp	blankscreen.bmp	circle.bmp
51	real_a	real_topleft_same_a	17	401	23	mask.bmp	blankscreen.bmp	wfn4.bmp	blankscreen.bmp	square.bmp
51	real_a	real_bottomright_diff_a	18	976	23	mask.bmp	blankscreen.bmp	wfn2.bmp	blankscreen.bmp	square.bmp
51	real_a	real_topleft_diff_a	19	872	23	mask.bmp	blankscreen.bmp	wfd1.bmp	blankscreen.bmp	square.bmp
51	real_a	real_bottomright_same_a	20	491	23	mask.bmp	blankscreen.bmp	wmd5.bmp	blankscreen.bmp	square.bmp
51	real_b	real_bottomleft_diff_b	1	482	18	mask.bmp	blankscreen.bmp	wfn7.bmp	blankscreen.bmp	circle.bmp
51	real_b	real_bottomleft_diff_b	2	605	18	mask.bmp	blankscreen.bmp	wmd6.bmp	blankscreen.bmp	circle.bmp
51	real_b	real_topright_same_b	3	468	23	mask.bmp	blankscreen.bmp	wmn10.bmp	blankscreen.bmp	square.bmp
51	real_b	real_bottomright_diff_b	4	560	18	mask.bmp	blankscreen.bmp	wfd6.bmp	blankscreen.bmp	circle.bmp
51	real_b	real_bottomright_diff_b	5	593	23	mask.bmp	blankscreen.bmp	wmd7.bmp	blankscreen.bmp	circle.bmp
51	real_b	real_topleft_diff_b	6	720	23	mask.bmp	blankscreen.bmp	wmn6.bmp	blankscreen.bmp	square.bmp
51	real_b	real_topright_diff_b	7	634	18	mask.bmp	blankscreen.bmp	wfn6.bmp	blankscreen.bmp	circle.bmp
51	real_b	real_bottomright_same_b	8	504	23	mask.bmp	blankscreen.bmp	wfn10.bmp	blankscreen.bmp	square.bmp
51	real_b	real_bottomleft_diff_b	9	594	18	mask.bmp	blankscreen.bmp	wmn8.bmp	blankscreen.bmp	circle.bmp
51	real_b	real_bottomright_diff_b	10	577	23	mask.bmp	blankscreen.bmp	wfn8.bmp	blankscreen.bmp	square.bmp
51	real_b	real_topleft_diff_b	11	489	23	mask.bmp	blankscreen.bmp	wfd7.bmp	blankscreen.bmp	square.bmp
51	real_b	real_bottomleft_same_b	12	517	18	mask.bmp	blankscreen.bmp	wfd9.bmp	blankscreen.bmp	circle.bmp
51	real_b	real_bottomleft_same_b	13	623	23	mask.bmp	blankscreen.bmp	wmd10.bmp	blankscreen.bmp	square.bmp
51	real_b	real_topleft_diff_b	14	709	23	mask.bmp	blankscreen.bmp	wmd8.bmp	blankscreen.bmp	square.bmp
51	real_b	real_topleft_same_b	15	639	18	mask.bmp	blankscreen.bmp	wmn9.bmp	blankscreen.bmp	circle.bmp
51	real_b	real_bottomright_same_b	16	405	18	mask.bmp	blankscreen.bmp	wfd10.bmp	blankscreen.bmp	circle.bmp
51	real_b	real_topright_same_b	17	411	23	mask.bmp	blankscreen.bmp	wfn9.bmp	blankscreen.bmp	square.bmp
51	real_b	real_topright_diff_b	18	114	23	mask.bmp	blankscreen.bmp	wmn7.bmp	blankscreen.bmp	circle.bmp
51	real_b	real_topleft_same_b	19	613	23	mask.bmp	blankscreen.bmp	wmd9.bmp	blankscreen.bmp	square.bmp
51	real_b	real_topright_diff_b	20	724	23	mask.bmp	blankscreen.bmp	wfd8.bmp	blankscreen.bmp	square.bmp
51	real_c	real_topleft_same_c	1	523	18	mask.bmp	blankscreen.bmp	wfd1.bmp	blankscreen.bmp	circle.bmp
51	real_c	real_topright_same_c	2	573	23	mask.bmp	blankscreen.bmp	wfn2.bmp	blankscreen.bmp	square.bmp
51	real_c	real_bottomright_diff_c	3	741	23	mask.bmp	blankscreen.bmp	wmn4.bmp	blankscreen.bmp	square.bmp
51	real_c	real_bottomleft_diff_c	4	590	18	mask.bmp	blankscreen.bmp	wfn3.bmp	blankscreen.bmp	circle.bmp
51	real_c	real_bottomright_same_c	5	605	18	mask.bmp	blankscreen.bmp	wmd2.bmp	blankscreen.bmp	circle.bmp
51	real_c	real_bottomleft_same_c	6	588	23	mask.bmp	blankscreen.bmp	wmn1.bmp	blankscreen.bmp	square.bmp
51	real_c	real_bottomleft_same_c	7	611	18	mask.bmp	blankscreen.bmp	wfd2.bmp	blankscreen.bmp	circle.bmp
51	real_c	real_bottomright_same_c	8	578	18	mask.bmp	blankscreen.bmp	wmn2.bmp	blankscreen.bmp	circle.bmp
51	real_c	real_topright_diff_c	9	426	23	mask.bmp	blankscreen.bmp	wfn5.bmp	blankscreen.bmp	square.bmp
51	real_c	real_topright_diff_c	10	624	18	mask.bmp	blankscreen.bmp	wmd4.bmp	blankscreen.bmp	circle.bmp
51	real_c	real_bottomleft_diff_c	11	526	23	mask.bmp	blankscreen.bmp	wfd4.bmp	blankscreen.bmp	square.bmp
51	real_c	real_topright_same_c	12	1520	23	mask.bmp	blankscreen.bmp	wmd1.bmp	blankscreen.bmp	square.bmp
51	real_c	real_topright_diff_c	13	665	23	mask.bmp	blankscreen.bmp	wmn3.bmp	blankscreen.bmp	square.bmp
51	real_c	real_bottomright_diff_c	14	550	23	mask.bmp	blankscreen.bmp	wfd5.bmp	blankscreen.bmp	square.bmp
51	real_c	real_topleft_diff_c	15	775	23	mask.bmp	blankscreen.bmp	wmn5.bmp	blankscreen.bmp	square.bmp
51	real_c	real_topleft_diff_c	16	486	23	mask.bmp	blankscreen.bmp	wfn4.bmp	blankscreen.bmp	square.bmp
51	real_c	real_bottomleft_diff_c	17	562	18	mask.bmp	blankscreen.bmp	wmd5.bmp	blankscreen.bmp	circle.bmp
51	real_c	real_bottomright_diff_c	18	963	18	mask.bmp	blankscreen.bmp	wmd3.bmp	blankscreen.bmp	circle.bmp
51	real_c	real_topleft_same_c	19	723	18	mask.bmp	blankscreen.bmp	wfn1.bmp	blankscreen.bmp	circle.bmp
51	real_c	real_topleft_diff_c	20	485	23	mask.bmp	blankscreen.bmp	wfd3.bmp	blankscreen.bmp	square.bmp
51	real_d	real_topleft_same_d	1	739	23	mask.bmp	blankscreen.bmp	wmd6.bmp	blankscreen.bmp	square.bmp
51	real_d	real_bottomright_diff_d	2	596	18	mask.bmp	blankscreen.bmp	wfn9.bmp	blankscreen.bmp	circle.bmp
51	real_d	real_bottomleft_diff_d	3	579	23	mask.bmp	blankscreen.bmp	wmd8.bmp	blankscreen.bmp	square.bmp
51	real_d	real_topleft_same_d	4	475	18	mask.bmp	blankscreen.bmp	wmn6.bmp	blankscreen.bmp	circle.bmp
51	real_d	real_bottomright_same_d	5	751	23	mask.bmp	blankscreen.bmp	wfn7.bmp	blankscreen.bmp	square.bmp
51	real_d	real_topright_diff_d	6	384	23	mask.bmp	blankscreen.bmp	wfn8.bmp	blankscreen.bmp	square.bmp
51	real_d	real_topright_diff_d	7	463	18	mask.bmp	blankscreen.bmp	wfd9.bmp	blankscreen.bmp	circle.bmp
51	real_d	real_topleft_diff_d	8	564	18	mask.bmp	blankscreen.bmp	wfn10.bmp	blankscreen.bmp	circle.bmp
51	real_d	real_bottomleft_same_d	9	365	23	mask.bmp	blankscreen.bmp	wmn7.bmp	blankscreen.bmp	square.bmp
51	real_d	real_bottomright_same_d	10	358	18	mask.bmp	blankscreen.bmp	wfd7.bmp	blankscreen.bmp	circle.bmp
51	real_d	real_bottomleft_diff_d	11	318	23	mask.bmp	blankscreen.bmp	wfd10.bmp	blankscreen.bmp	square.bmp
51	real_d	real_topleft_diff_d	12	641	18	mask.bmp	blankscreen.bmp	wmd9.bmp	blankscreen.bmp	circle.bmp
51	real_d	real_topright_same_d	13	774	18	mask.bmp	blankscreen.bmp	wmd7.bmp	blankscreen.bmp	circle.bmp
51	real_d	real_bottomleft_same_d	14	446	23	mask.bmp	blankscreen.bmp	wfn6.bmp	blankscreen.bmp	square.bmp
51	real_d	real_bottomright_diff_d	15	835	18	mask.bmp	blankscreen.bmp	wmn10.bmp	blankscreen.bmp	square.bmp
51	real_d	real_topleft_diff_d	16	632	18	mask.bmp	blankscreen.bmp	wmn8.bmp	blankscreen.bmp	circle.bmp
51	real_d	real_topright_same_d	17	710	18	mask.bmp	blankscreen.bmp	wfd6.bmp	blankscreen.bmp	circle.bmp
51	real_d	real_bottomright_diff_d	18	624	23	mask.bmp	blankscreen.bmp	wfd8.bmp	blankscreen.bmp	square.bmp
51	real_d	real_topright_diff_d	19	734	23	mask.bmp	blankscreen.bmp	wmd10.bmp	blankscreen.bmp	square.bmp
51	real_d	real_bottomleft_diff_d	20	671	18	mask.bmp	blankscreen.bmp	wmn9.bmp	blankscreen.bmp	circle.bmp
66	practice	practice_bottomleft_diff	1	2282	23	mask.bmp	blankscreen.bmp	practice11.jpg	blankscreen.bmp	square.bmp
66	practice	practice_bottomleft_same	2	869	18	mask.bmp	blankscreen.bmp	practice5.jpg	blankscreen.bmp	circle.bmp
66	practice	practice_bottomright_same	3	624	23	mask.bmp	blankscreen.bmp	practice7.jpg	blankscreen.bmp	square.bmp
66	practice	practice_bottomright_diff	4	550	23	mask.bmp	blankscreen.bmp	practice12.jpg	blankscreen.bmp	square.bmp
66	practice	practice_bottomleft_same	5	767	23	mask.bmp	blankscreen.bmp	practice6.jpg	blankscreen.bmp	square.bmp
66	practice	practice_topright_diff	6	455	18	mask.bmp	blankscreen.bmp	practice10.jpg	blankscreen.bmp	circle.bmp
66	practice	practice_topleft_same	7	388	23	mask.bmp	blankscreen.bmp	practice2.jpg	blankscreen.bmp	square.bmp
66	practice	practice_topright_same	8	507	18	mask.bmp	blankscreen.bmp	practice3.jpg	blankscreen.bmp	circle.bmp
66	practice	practice_topright_same	9	526	23	mask.bmp	blankscreen.bmp	practice4.jpg	blankscreen.bmp	square.bmp
66	practice	practice_topleft_same	10	512	18	mask.bmp	blankscreen.bmp	practice1.jpg	blankscreen.bmp	circle.bmp
66	practice	practice_topleft_diff	11	699	18	mask.bmp	blankscreen.bmp	practice9.jpg	blankscreen.bmp	circle.bmp
66	practice	practice_bottomright_same	12	686	23	mask.bmp	blankscreen.bmp	practice8.jpg	blankscreen.bmp	square.bmp
66	real_a	real_topright_diff_a	1	1278	23	mask.bmp	blankscreen.bmp	wfd2.bmp	blankscreen.bmp	square.bmp
66	real_a	real_bottomleft_diff_a	2	977	23	mask.bmp	blankscreen.bmp	wmn2.bmp	blankscreen.bmp	square.bmp
66	real_a	real_bottomleft_same_a	3	1145	23	mask.bmp	blankscreen.bmp	wmd4.bmp	blankscreen.bmp	square.bmp
66	real_a	real_bottomright_same_a	4	810	23	mask.bmp	blankscreen.bmp	wmd5.bmp	blankscreen.bmp	square.bmp
66	real_a	real_bottomright_diff_a	5	976	18	mask.bmp	blankscreen.bmp	wfn2.bmp	blankscreen.bmp	circle.bmp
66	real_a	real_topleft_same_a	6	960	18	mask.bmp	blankscreen.bmp	wfn4.bmp	blankscreen.bmp	circle.bmp
66	real_a	real_bottomright_diff_a	7	640	18	mask.bmp	blankscreen.bmp	wmd1.bmp	blankscreen.bmp	circle.bmp
66	real_a	real_topleft_diff_a	8	950	18	mask.bmp	blankscreen.bmp	wfd1.bmp	blankscreen.bmp	circle.bmp
66	real_a	real_topleft_diff_a	9	790	18	mask.bmp	blankscreen.bmp	wmd2.bmp	blankscreen.bmp	circle.bmp
66	real_a	real_topright_diff_a	10	669	18	mask.bmp	blankscreen.bmp	wmd3.bmp	blankscreen.bmp	circle.bmp
66	real_a	real_topright_same_a	11	745	18	mask.bmp	blankscreen.bmp	wfd5.bmp	blankscreen.bmp	circle.bmp
66	real_a	real_bottomleft_diff_a	12	834	23	mask.bmp	blankscreen.bmp	wfd3.bmp	blankscreen.bmp	square.bmp
66	real_a	real_topleft_same_a	13	631	18	mask.bmp	blankscreen.bmp	wfd4.bmp	blankscreen.bmp	circle.bmp
66	real_a	real_topright_same_a	14	685	23	mask.bmp	blankscreen.bmp	wmn4.bmp	blankscreen.bmp	square.bmp
66	real_a	real_bottomleft_diff_a	15	737	23	mask.bmp	blankscreen.bmp	wfn1.bmp	blankscreen.bmp	square.bmp
66	real_a	real_bottomright_same_a	16	770	18	mask.bmp	blankscreen.bmp	wmn5.bmp	blankscreen.bmp	circle.bmp
66	real_a	real_bottomleft_same_a	17	698	23	mask.bmp	blankscreen.bmp	wfn5.bmp	blankscreen.bmp	square.bmp
66	real_a	real_topright_diff_a	18	749	23	mask.bmp	blankscreen.bmp	wmn1.bmp	blankscreen.bmp	square.bmp
66	real_a	real_bottomright_diff_a	19	542	23	mask.bmp	blankscreen.bmp	wmn3.bmp	blankscreen.bmp	square.bmp
66	real_a	real_topleft_diff_a	20	831	18	mask.bmp	blankscreen.bmp	wfn3.bmp	blankscreen.bmp	circle.bmp
66	real_b	real_bottomleft_same_b	1	838	23	mask.bmp	blankscreen.bmp	wfd9.bmp	blankscreen.bmp	square.bmp
66	real_b	real_topright_diff_b	2	811	18	mask.bmp	blankscreen.bmp	wfd8.bmp	blankscreen.bmp	circle.bmp
66	real_b	real_bottomright_diff_b	3	617	18	mask.bmp	blankscreen.bmp	wfd6.bmp	blankscreen.bmp	circle.bmp
66	real_b	real_topright_diff_b	4	735	18	mask.bmp	blankscreen.bmp	wfn6.bmp	blankscreen.bmp	circle.bmp
66	real_b	real_topleft_same_b	5	760	18	mask.bmp	blankscreen.bmp	wmd9.bmp	blankscreen.bmp	circle.bmp
66	real_b	real_bottomright_diff_b	6	705	18	mask.bmp	blankscreen.bmp	wfn8.bmp	blankscreen.bmp	circle.bmp
66	real_b	real_topright_diff_b	7	524	23	mask.bmp	blankscreen.bmp	wmn7.bmp	blankscreen.bmp	square.bmp
66	real_b	real_topleft_diff_b	8	590	23	mask.bmp	blankscreen.bmp	wmd8.bmp	blankscreen.bmp	square.bmp
66	real_b	real_topright_same_b	9	885	23	mask.bmp	blankscreen.bmp	wmn10.bmp	blankscreen.bmp	square.bmp
66	real_b	real_topleft_diff_b	10	680	23	mask.bmp	blankscreen.bmp	wmn6.bmp	blankscreen.bmp	square.bmp
66	real_b	real_bottomright_same_b	11	916	23	mask.bmp	blankscreen.bmp	wfd10.bmp	blankscreen.bmp	square.bmp
66	real_b	real_bottomright_diff_b	12	598	18	mask.bmp	blankscreen.bmp	wmd7.bmp	blankscreen.bmp	circle.bmp
66	real_b	real_topright_same_b	13	637	18	mask.bmp	blankscreen.bmp	wfn9.bmp	blankscreen.bmp	circle.bmp
66	real_b	real_bottomleft_same_b	14	706	18	mask.bmp	blankscreen.bmp	wmd10.bmp	blankscreen.bmp	circle.bmp
66	real_b	real_topleft_diff_b	15	957	18	mask.bmp	blankscreen.bmp	wfd7.bmp	blankscreen.bmp	circle.bmp
66	real_b	real_bottomright_same_b	16	901	23	mask.bmp	blankscreen.bmp	wfn10.bmp	blankscreen.bmp	square.bmp
66	real_b	real_bottomleft_diff_b	17	656	18	mask.bmp	blankscreen.bmp	wfn7.bmp	blankscreen.bmp	circle.bmp
66	real_b	real_bottomleft_diff_b	18	732	18	mask.bmp	blankscreen.bmp	wmn8.bmp	blankscreen.bmp	circle.bmp
66	real_b	real_topleft_same_b	19	774	18	mask.bmp	blankscreen.bmp	wmn9.bmp	blankscreen.bmp	circle.bmp
66	real_b	real_bottomleft_diff_b	20	654	18	mask.bmp	blankscreen.bmp	wmd6.bmp	blankscreen.bmp	circle.bmp
66	real_c	real_topright_diff_c	1	758	18	mask.bmp	blankscreen.bmp	wfn5.bmp	blankscreen.bmp	circle.bmp
66	real_c	real_topleft_diff_c	2	686	23	mask.bmp	blankscreen.bmp	wfn4.bmp	blankscreen.bmp	square.bmp
66	real_c	real_bottomleft_diff_c	3	633	23	mask.bmp	blankscreen.bmp	wfn3.bmp	blankscreen.bmp	square.bmp
66	real_c	real_topright_same_c	4	1055	23	mask.bmp	blankscreen.bmp	wmd1.bmp	blankscreen.bmp	square.bmp
66	real_c	real_topright_diff_c	5	635	18	mask.bmp	blankscreen.bmp	wmn3.bmp	blankscreen.bmp	circle.bmp
66	real_c	real_topright_diff_c	6	712	18	mask.bmp	blankscreen.bmp	wmd4.bmp	blankscreen.bmp	circle.bmp
66	real_c	real_bottomright_same_c	7	851	23	mask.bmp	blankscreen.bmp	wmd2.bmp	blankscreen.bmp	square.bmp
66	real_c	real_bottomleft_same_c	8	1223	23	mask.bmp	blankscreen.bmp	wfd2.bmp	blankscreen.bmp	square.bmp
66	real_c	real_bottomright_diff_c	9	685	23	mask.bmp	blankscreen.bmp	wmd3.bmp	blankscreen.bmp	square.bmp
66	real_c	real_topright_same_c	10	704	23	mask.bmp	blankscreen.bmp	wfn2.bmp	blankscreen.bmp	square.bmp
66	real_c	real_topleft_diff_c	11	555	18	mask.bmp	blankscreen.bmp	wfd3.bmp	blankscreen.bmp	circle.bmp
66	real_c	real_topleft_same_c	12	723	23	mask.bmp	blankscreen.bmp	wfn1.bmp	blankscreen.bmp	square.bmp
66	real_c	real_bottomright_same_c	13	597	23	mask.bmp	blankscreen.bmp	wmn2.bmp	blankscreen.bmp	square.bmp
66	real_c	real_bottomleft_diff_c	14	476	23	mask.bmp	blankscreen.bmp	wfd4.bmp	blankscreen.bmp	square.bmp
66	real_c	real_bottomright_diff_c	15	512	23	mask.bmp	blankscreen.bmp	wmn4.bmp	blankscreen.bmp	square.bmp
66	real_c	real_topleft_same_c	16	556	23	mask.bmp	blankscreen.bmp	wfd1.bmp	blankscreen.bmp	square.bmp
66	real_c	real_bottomleft_diff_c	17	732	18	mask.bmp	blankscreen.bmp	wmd5.bmp	blankscreen.bmp	circle.bmp
66	real_c	real_bottomright_diff_c	18	702	23	mask.bmp	blankscreen.bmp	wfd5.bmp	blankscreen.bmp	square.bmp
66	real_c	real_topleft_diff_c	19	560	23	mask.bmp	blankscreen.bmp	wmn5.bmp	blankscreen.bmp	square.bmp
66	real_c	real_bottomleft_same_c	20	585	18	mask.bmp	blankscreen.bmp	wmn1.bmp	blankscreen.bmp	circle.bmp
66	real_d	real_topright_same_d	1	624	18	mask.bmp	blankscreen.bmp	wmd7.bmp	blankscreen.bmp	circle.bmp
66	real_d	real_topleft_same_d	2	734	18	mask.bmp	blankscreen.bmp	wmn6.bmp	blankscreen.bmp	circle.bmp
66	real_d	real_topleft_diff_d	3	471	23	mask.bmp	blankscreen.bmp	wmd9.bmp	blankscreen.bmp	square.bmp
66	real_d	real_bottomleft_diff_d	4	779	18	mask.bmp	blankscreen.bmp	wmd8.bmp	blankscreen.bmp	circle.bmp
66	real_d	real_bottomleft_diff_d	5	507	18	mask.bmp	blankscreen.bmp	wfd10.bmp	blankscreen.bmp	circle.bmp
66	real_d	real_bottomright_same_d	6	558	23	mask.bmp	blankscreen.bmp	wfn7.bmp	blankscreen.bmp	square.bmp
66	real_d	real_bottomright_same_d	7	671	23	mask.bmp	blankscreen.bmp	wfd7.bmp	blankscreen.bmp	square.bmp
66	real_d	real_topright_diff_d	8	651	18	mask.bmp	blankscreen.bmp	wfn8.bmp	blankscreen.bmp	circle.bmp
66	real_d	real_topright_same_d	9	975	18	mask.bmp	blankscreen.bmp	wfd6.bmp	blankscreen.bmp	circle.bmp
66	real_d	real_topleft_same_d	10	655	23	mask.bmp	blankscreen.bmp	wmd6.bmp	blankscreen.bmp	square.bmp
66	real_d	real_bottomleft_same_d	11	699	23	mask.bmp	blankscreen.bmp	wmn7.bmp	blankscreen.bmp	square.bmp
66	real_d	real_bottomleft_diff_d	12	542	18	mask.bmp	blankscreen.bmp	wmn9.bmp	blankscreen.bmp	circle.bmp
66	real_d	real_topleft_diff_d	13	567	23	mask.bmp	blankscreen.bmp	wfn10.bmp	blankscreen.bmp	square.bmp
66	real_d	real_bottomleft_same_d	14	655	18	mask.bmp	blankscreen.bmp	wfn6.bmp	blankscreen.bmp	circle.bmp
66	real_d	real_topright_diff_d	15	524	18	mask.bmp	blankscreen.bmp	wfd9.bmp	blankscreen.bmp	circle.bmp
66	real_d	real_bottomright_diff_d	16	510	18	mask.bmp	blankscreen.bmp	wmn10.bmp	blankscreen.bmp	circle.bmp
66	real_d	real_topright_diff_d	17	641	18	mask.bmp	blankscreen.bmp	wmd10.bmp	blankscreen.bmp	circle.bmp
66	real_d	real_bottomright_diff_d	18	654	18	mask.bmp	blankscreen.bmp	wfd8.bmp	blankscreen.bmp	circle.bmp
66	real_d	real_topleft_diff_d	19	475	18	mask.bmp	blankscreen.bmp	wmn8.bmp	blankscreen.bmp	circle.bmp
66	real_d	real_bottomright_diff_d	20	615	23	mask.bmp	blankscreen.bmp	wfn9.bmp	blankscreen.bmp	square.bmp
76	practice	practice_topright_diff	1	895	23	mask.bmp	blankscreen.bmp	practice10.jpg	blankscreen.bmp	square.bmp
76	practice	practice_topright_same	2	810	23	mask.bmp	blankscreen.bmp	practice4.jpg	blankscreen.bmp	square.bmp
76	practice	practice_bottomright_same	3	689	18	mask.bmp	blankscreen.bmp	practice7.jpg	blankscreen.bmp	circle.bmp
76	practice	practice_bottomleft_diff	4	548	23	mask.bmp	blankscreen.bmp	practice11.jpg	blankscreen.bmp	square.bmp
76	practice	practice_topright_same	5	518	23	mask.bmp	blankscreen.bmp	practice3.jpg	blankscreen.bmp	square.bmp
76	practice	practice_bottomleft_same	6	687	18	mask.bmp	blankscreen.bmp	practice6.jpg	blankscreen.bmp	circle.bmp
76	practice	practice_topleft_diff	7	578	23	mask.bmp	blankscreen.bmp	practice9.jpg	blankscreen.bmp	square.bmp
76	practice	practice_topleft_same	8	674	23	mask.bmp	blankscreen.bmp	practice2.jpg	blankscreen.bmp	square.bmp
76	practice	practice_bottomleft_same	9	518	18	mask.bmp	blankscreen.bmp	practice5.jpg	blankscreen.bmp	circle.bmp
76	practice	practice_bottomright_same	10	649	23	mask.bmp	blankscreen.bmp	practice8.jpg	blankscreen.bmp	square.bmp
76	practice	practice_bottomright_diff	11	550	23	mask.bmp	blankscreen.bmp	practice12.jpg	blankscreen.bmp	square.bmp
76	practice	practice_topleft_same	12	487	18	mask.bmp	blankscreen.bmp	practice1.jpg	blankscreen.bmp	circle.bmp
76	real_a	real_bottomright_diff_a	1	481	18	mask.bmp	blankscreen.bmp	wmn3.bmp	blankscreen.bmp	circle.bmp
76	real_a	real_bottomright_same_a	2	629	18	mask.bmp	blankscreen.bmp	wmn5.bmp	blankscreen.bmp	circle.bmp
76	real_a	real_topright_same_a	3	491	18	mask.bmp	blankscreen.bmp	wfd5.bmp	blankscreen.bmp	circle.bmp
76	real_a	real_topleft_same_a	4	558	23	mask.bmp	blankscreen.bmp	wfd4.bmp	blankscreen.bmp	square.bmp
76	real_a	real_bottomright_same_a	5	559	18	mask.bmp	blankscreen.bmp	wmd5.bmp	blankscreen.bmp	square.bmp
76	real_a	real_topright_same_a	6	520	23	mask.bmp	blankscreen.bmp	wmn4.bmp	blankscreen.bmp	square.bmp
76	real_a	real_bottomright_diff_a	7	578	18	mask.bmp	blankscreen.bmp	wmd1.bmp	blankscreen.bmp	circle.bmp
76	real_a	real_topleft_diff_a	8	690	23	mask.bmp	blankscreen.bmp	wmd2.bmp	blankscreen.bmp	square.bmp
76	real_a	real_topright_diff_a	9	645	23	mask.bmp	blankscreen.bmp	wmn1.bmp	blankscreen.bmp	square.bmp
76	real_a	real_topleft_same_a	10	859	23	mask.bmp	blankscreen.bmp	wfn4.bmp	blankscreen.bmp	square.bmp
76	real_a	real_bottomright_diff_a	11	567	18	mask.bmp	blankscreen.bmp	wfn2.bmp	blankscreen.bmp	circle.bmp
76	real_a	real_bottomleft_diff_a	12	495	23	mask.bmp	blankscreen.bmp	wmn2.bmp	blankscreen.bmp	square.bmp
76	real_a	real_bottomleft_same_a	13	530	18	mask.bmp	blankscreen.bmp	wfn5.bmp	blankscreen.bmp	circle.bmp
76	real_a	real_topleft_diff_a	14	540	18	mask.bmp	blankscreen.bmp	wfd1.bmp	blankscreen.bmp	circle.bmp
76	real_a	real_topleft_diff_a	15	566	18	mask.bmp	blankscreen.bmp	wfn3.bmp	blankscreen.bmp	circle.bmp
76	real_a	real_topright_diff_a	16	454	18	mask.bmp	blankscreen.bmp	wmd3.bmp	blankscreen.bmp	circle.bmp
76	real_a	real_bottomleft_diff_a	17	459	18	mask.bmp	blankscreen.bmp	wfn1.bmp	blankscreen.bmp	circle.bmp
76	real_a	real_bottomleft_diff_a	18	471	23	mask.bmp	blankscreen.bmp	wfd3.bmp	blankscreen.bmp	square.bmp
76	real_a	real_bottomleft_same_a	19	723	23	mask.bmp	blankscreen.bmp	wmd4.bmp	blankscreen.bmp	square.bmp
76	real_a	real_topright_diff_a	20	549	23	mask.bmp	blankscreen.bmp	wfd2.bmp	blankscreen.bmp	square.bmp
76	real_b	real_topleft_diff_b	1	552	23	mask.bmp	blankscreen.bmp	wmd8.bmp	blankscreen.bmp	square.bmp
76	real_b	real_bottomright_diff_b	2	377	18	mask.bmp	blankscreen.bmp	wfd6.bmp	blankscreen.bmp	circle.bmp
76	real_b	real_topright_diff_b	3	449	18	mask.bmp	blankscreen.bmp	wfd8.bmp	blankscreen.bmp	circle.bmp
76	real_b	real_bottomleft_same_b	4	542	23	mask.bmp	blankscreen.bmp	wfd9.bmp	blankscreen.bmp	square.bmp
76	real_b	real_bottomright_diff_b	5	487	23	mask.bmp	blankscreen.bmp	wfn8.bmp	blankscreen.bmp	square.bmp
76	real_b	real_topleft_diff_b	6	603	23	mask.bmp	blankscreen.bmp	wfd7.bmp	blankscreen.bmp	square.bmp
76	real_b	real_bottomleft_diff_b	7	521	23	mask.bmp	blankscreen.bmp	wmd6.bmp	blankscreen.bmp	square.bmp
76	real_b	real_bottomleft_diff_b	8	515	23	mask.bmp	blankscreen.bmp	wfn7.bmp	blankscreen.bmp	square.bmp
76	real_b	real_topright_same_b	9	454	23	mask.bmp	blankscreen.bmp	wmn10.bmp	blankscreen.bmp	square.bmp
76	real_b	real_bottomleft_diff_b	10	482	18	mask.bmp	blankscreen.bmp	wmn8.bmp	blankscreen.bmp	circle.bmp
76	real_b	real_bottomright_diff_b	11	558	23	mask.bmp	blankscreen.bmp	wmd7.bmp	blankscreen.bmp	square.bmp
76	real_b	real_topleft_same_b	12	550	18	mask.bmp	blankscreen.bmp	wmd9.bmp	blankscreen.bmp	circle.bmp
76	real_b	real_topright_same_b	13	423	23	mask.bmp	blankscreen.bmp	wfn9.bmp	blankscreen.bmp	square.bmp
76	real_b	real_topleft_same_b	14	501	18	mask.bmp	blankscreen.bmp	wmn9.bmp	blankscreen.bmp	circle.bmp
76	real_b	real_bottomright_same_b	15	544	18	mask.bmp	blankscreen.bmp	wfd10.bmp	blankscreen.bmp	circle.bmp
76	real_b	real_topleft_diff_b	16	625	23	mask.bmp	blankscreen.bmp	wmn6.bmp	blankscreen.bmp	square.bmp
76	real_b	real_bottomleft_same_b	17	487	18	mask.bmp	blankscreen.bmp	wmd10.bmp	blankscreen.bmp	circle.bmp
76	real_b	real_bottomright_same_b	18	507	18	mask.bmp	blankscreen.bmp	wfn10.bmp	blankscreen.bmp	square.bmp
76	real_b	real_topright_diff_b	19	494	18	mask.bmp	blankscreen.bmp	wmn7.bmp	blankscreen.bmp	circle.bmp
76	real_b	real_topright_diff_b	20	713	18	mask.bmp	blankscreen.bmp	wfn6.bmp	blankscreen.bmp	circle.bmp
76	real_c	real_topleft_diff_c	1	584	23	mask.bmp	blankscreen.bmp	wfn4.bmp	blankscreen.bmp	square.bmp
76	real_c	real_bottomright_diff_c	2	471	23	mask.bmp	blankscreen.bmp	wmn4.bmp	blankscreen.bmp	square.bmp
76	real_c	real_topright_same_c	3	363	23	mask.bmp	blankscreen.bmp	wmd1.bmp	blankscreen.bmp	square.bmp
76	real_c	real_topleft_diff_c	4	628	18	mask.bmp	blankscreen.bmp	wmn5.bmp	blankscreen.bmp	circle.bmp
76	real_c	real_bottomright_diff_c	5	538	23	mask.bmp	blankscreen.bmp	wfd5.bmp	blankscreen.bmp	square.bmp
76	real_c	real_topright_same_c	6	467	23	mask.bmp	blankscreen.bmp	wfn2.bmp	blankscreen.bmp	square.bmp
76	real_c	real_topright_diff_c	7	495	18	mask.bmp	blankscreen.bmp	wmn3.bmp	blankscreen.bmp	circle.bmp
76	real_c	real_bottomright_same_c	8	451	23	mask.bmp	blankscreen.bmp	wmn2.bmp	blankscreen.bmp	square.bmp
76	real_c	real_bottomright_diff_c	9	416	18	mask.bmp	blankscreen.bmp	wmd3.bmp	blankscreen.bmp	circle.bmp
76	real_c	real_bottomleft_same_c	10	590	23	mask.bmp	blankscreen.bmp	wmn1.bmp	blankscreen.bmp	square.bmp
76	real_c	real_topleft_same_c	11	653	23	mask.bmp	blankscreen.bmp	wfd1.bmp	blankscreen.bmp	square.bmp
76	real_c	real_bottomleft_diff_c	12	610	18	mask.bmp	blankscreen.bmp	wfd4.bmp	blankscreen.bmp	circle.bmp
76	real_c	real_topright_diff_c	13	560	23	mask.bmp	blankscreen.bmp	wfn5.bmp	blankscreen.bmp	square.bmp
76	real_c	real_bottomleft_same_c	14	545	18	mask.bmp	blankscreen.bmp	wfd2.bmp	blankscreen.bmp	circle.bmp
76	real_c	real_bottomleft_diff_c	15	506	23	mask.bmp	blankscreen.bmp	wfn3.bmp	blankscreen.bmp	square.bmp
76	real_c	real_bottomleft_diff_c	16	493	18	mask.bmp	blankscreen.bmp	wmd5.bmp	blankscreen.bmp	circle.bmp
76	real_c	real_topright_diff_c	17	552	18	mask.bmp	blankscreen.bmp	wmd4.bmp	blankscreen.bmp	circle.bmp
76	real_c	real_topleft_same_c	18	553	23	mask.bmp	blankscreen.bmp	wfn1.bmp	blankscreen.bmp	square.bmp
76	real_c	real_bottomright_same_c	19	538	23	mask.bmp	blankscreen.bmp	wmd2.bmp	blankscreen.bmp	square.bmp
76	real_c	real_topleft_diff_c	20	523	23	mask.bmp	blankscreen.bmp	wfd3.bmp	blankscreen.bmp	square.bmp
76	real_d	real_topright_diff_d	1	509	18	mask.bmp	blankscreen.bmp	wmd10.bmp	blankscreen.bmp	circle.bmp
76	real_d	real_bottomleft_diff_d	2	479	18	mask.bmp	blankscreen.bmp	wfd10.bmp	blankscreen.bmp	circle.bmp
76	real_d	real_bottomleft_diff_d	3	492	23	mask.bmp	blankscreen.bmp	wmd8.bmp	blankscreen.bmp	square.bmp
76	real_d	real_bottomright_diff_d	4	527	18	mask.bmp	blankscreen.bmp	wfd8.bmp	blankscreen.bmp	circle.bmp
76	real_d	real_topright_diff_d	5	537	23	mask.bmp	blankscreen.bmp	wfn8.bmp	blankscreen.bmp	square.bmp
76	real_d	real_topright_diff_d	6	610	18	mask.bmp	blankscreen.bmp	wfd9.bmp	blankscreen.bmp	circle.bmp
76	real_d	real_bottomleft_diff_d	7	489	18	mask.bmp	blankscreen.bmp	wmn9.bmp	blankscreen.bmp	circle.bmp
76	real_d	real_bottomleft_same_d	8	540	18	mask.bmp	blankscreen.bmp	wmn7.bmp	blankscreen.bmp	circle.bmp
76	real_d	real_topleft_diff_d	9	598	18	mask.bmp	blankscreen.bmp	wfn10.bmp	blankscreen.bmp	circle.bmp
76	real_d	real_topleft_same_d	10	517	18	mask.bmp	blankscreen.bmp	wmd6.bmp	blankscreen.bmp	circle.bmp
76	real_d	real_topright_same_d	11	391	23	mask.bmp	blankscreen.bmp	wmd7.bmp	blankscreen.bmp	square.bmp
76	real_d	real_bottomright_same_d	12	487	18	mask.bmp	blankscreen.bmp	wfd7.bmp	blankscreen.bmp	circle.bmp
76	real_d	real_topleft_diff_d	13	506	18	mask.bmp	blankscreen.bmp	wmn8.bmp	blankscreen.bmp	circle.bmp
76	real_d	real_bottomleft_same_d	14	493	23	mask.bmp	blankscreen.bmp	wfn6.bmp	blankscreen.bmp	square.bmp
76	real_d	real_bottomright_diff_d	15	624	18	mask.bmp	blankscreen.bmp	wmn10.bmp	blankscreen.bmp	circle.bmp
76	real_d	real_topleft_diff_d	16	678	23	mask.bmp	blankscreen.bmp	wmd9.bmp	blankscreen.bmp	square.bmp
76	real_d	real_topleft_same_d	17	466	23	mask.bmp	blankscreen.bmp	wmn6.bmp	blankscreen.bmp	square.bmp
76	real_d	real_bottomright_diff_d	18	534	18	mask.bmp	blankscreen.bmp	wfn9.bmp	blankscreen.bmp	circle.bmp
76	real_d	real_bottomright_same_d	19	672	23	mask.bmp	blankscreen.bmp	wfn7.bmp	blankscreen.bmp	square.bmp
76	real_d	real_topright_same_d	20	475	18	mask.bmp	blankscreen.bmp	wfd6.bmp	blankscreen.bmp	circle.bmp
89	practice	practice_topleft_diff	1	860	23	mask.bmp	blankscreen.bmp	practice9.jpg	blankscreen.bmp	square.bmp
89	practice	practice_bottomleft_same	2	545	18	mask.bmp	blankscreen.bmp	practice6.jpg	blankscreen.bmp	circle.bmp
89	practice	practice_topright_same	3	690	18	mask.bmp	blankscreen.bmp	practice4.jpg	blankscreen.bmp	circle.bmp
89	practice	practice_topright_same	4	565	18	mask.bmp	blankscreen.bmp	practice3.jpg	blankscreen.bmp	circle.bmp
89	practice	practice_topright_diff	5	662	18	mask.bmp	blankscreen.bmp	practice10.jpg	blankscreen.bmp	circle.bmp
89	practice	practice_topleft_same	6	498	18	mask.bmp	blankscreen.bmp	practice2.jpg	blankscreen.bmp	circle.bmp
89	practice	practice_bottomright_same	7	614	23	mask.bmp	blankscreen.bmp	practice7.jpg	blankscreen.bmp	square.bmp
89	practice	practice_bottomright_same	8	556	23	mask.bmp	blankscreen.bmp	practice8.jpg	blankscreen.bmp	square.bmp
89	practice	practice_bottomleft_diff	9	501	18	mask.bmp	blankscreen.bmp	practice11.jpg	blankscreen.bmp	circle.bmp
89	practice	practice_bottomright_diff	10	584	23	mask.bmp	blankscreen.bmp	practice12.jpg	blankscreen.bmp	square.bmp
89	practice	practice_topleft_same	11	511	23	mask.bmp	blankscreen.bmp	practice1.jpg	blankscreen.bmp	square.bmp
89	practice	practice_bottomleft_same	12	490	18	mask.bmp	blankscreen.bmp	practice5.jpg	blankscreen.bmp	circle.bmp
89	real_a	real_topleft_diff_a	1	837	23	mask.bmp	blankscreen.bmp	wfd1.bmp	blankscreen.bmp	square.bmp
89	real_a	real_bottomleft_diff_a	2	514	23	mask.bmp	blankscreen.bmp	wfn1.bmp	blankscreen.bmp	square.bmp
89	real_a	real_bottomright_diff_a	3	421	18	mask.bmp	blankscreen.bmp	wmn3.bmp	blankscreen.bmp	circle.bmp
89	real_a	real_topleft_diff_a	4	515	18	mask.bmp	blankscreen.bmp	wfn3.bmp	blankscreen.bmp	circle.bmp
89	real_a	real_topleft_same_a	5	365	23	mask.bmp	blankscreen.bmp	wfn4.bmp	blankscreen.bmp	square.bmp
89	real_a	real_bottomleft_diff_a	6	581	23	mask.bmp	blankscreen.bmp	wmn2.bmp	blankscreen.bmp	square.bmp
89	real_a	real_topright_diff_a	7	485	18	mask.bmp	blankscreen.bmp	wmd3.bmp	blankscreen.bmp	circle.bmp
89	real_a	real_topleft_diff_a	8	681	23	mask.bmp	blankscreen.bmp	wmd2.bmp	blankscreen.bmp	square.bmp
89	real_a	real_topright_same_a	9	509	18	mask.bmp	blankscreen.bmp	wmn4.bmp	blankscreen.bmp	circle.bmp
89	real_a	real_bottomright_same_a	10	535	23	mask.bmp	blankscreen.bmp	wmd5.bmp	blankscreen.bmp	square.bmp
89	real_a	real_bottomright_diff_a	11	561	18	mask.bmp	blankscreen.bmp	wmd1.bmp	blankscreen.bmp	circle.bmp
89	real_a	real_bottomleft_same_a	12	561	18	mask.bmp	blankscreen.bmp	wfn5.bmp	blankscreen.bmp	circle.bmp
89	real_a	real_topright_diff_a	13	554	18	mask.bmp	blankscreen.bmp	wmn1.bmp	blankscreen.bmp	circle.bmp
89	real_a	real_topright_same_a	14	539	18	mask.bmp	blankscreen.bmp	wfd5.bmp	blankscreen.bmp	circle.bmp
89	real_a	real_topright_diff_a	15	508	23	mask.bmp	blankscreen.bmp	wfd2.bmp	blankscreen.bmp	square.bmp
89	real_a	real_bottomleft_same_a	16	535	23	mask.bmp	blankscreen.bmp	wmd4.bmp	blankscreen.bmp	square.bmp
89	real_a	real_bottomright_diff_a	17	672	18	mask.bmp	blankscreen.bmp	wfn2.bmp	blankscreen.bmp	circle.bmp
89	real_a	real_bottomleft_diff_a	18	604	18	mask.bmp	blankscreen.bmp	wfd3.bmp	blankscreen.bmp	circle.bmp
89	real_a	real_topleft_same_a	19	499	23	mask.bmp	blankscreen.bmp	wfd4.bmp	blankscreen.bmp	square.bmp
89	real_a	real_bottomright_same_a	20	365	18	mask.bmp	blankscreen.bmp	wmn5.bmp	blankscreen.bmp	circle.bmp
89	real_b	real_bottomleft_diff_b	1	442	23	mask.bmp	blankscreen.bmp	wmn8.bmp	blankscreen.bmp	square.bmp
89	real_b	real_topright_diff_b	2	583	23	mask.bmp	blankscreen.bmp	wfn6.bmp	blankscreen.bmp	square.bmp
89	real_b	real_topright_same_b	3	423	23	mask.bmp	blankscreen.bmp	wfn9.bmp	blankscreen.bmp	square.bmp
89	real_b	real_bottomright_diff_b	4	405	23	mask.bmp	blankscreen.bmp	wfn8.bmp	blankscreen.bmp	square.bmp
89	real_b	real_bottomleft_same_b	5	435	23	mask.bmp	blankscreen.bmp	wmd10.bmp	blankscreen.bmp	square.bmp
89	real_b	real_topright_diff_b	6	513	23	mask.bmp	blankscreen.bmp	wfd8.bmp	blankscreen.bmp	square.bmp
89	real_b	real_bottomright_same_b	7	484	18	mask.bmp	blankscreen.bmp	wfd10.bmp	blankscreen.bmp	circle.bmp
89	real_b	real_topleft_diff_b	8	479	23	mask.bmp	blankscreen.bmp	wfd7.bmp	blankscreen.bmp	square.bmp
89	real_b	real_topright_same_b	9	315	18	mask.bmp	blankscreen.bmp	wmn10.bmp	blankscreen.bmp	circle.bmp
89	real_b	real_topleft_same_b	10	309	18	mask.bmp	blankscreen.bmp	wmn9.bmp	blankscreen.bmp	circle.bmp
89	real_b	real_topleft_same_b	11	400	23	mask.bmp	blankscreen.bmp	wmd9.bmp	blankscreen.bmp	square.bmp
89	real_b	real_topleft_diff_b	12	495	23	mask.bmp	blankscreen.bmp	wmn6.bmp	blankscreen.bmp	square.bmp
89	real_b	real_bottomleft_same_b	13	499	18	mask.bmp	blankscreen.bmp	wfd9.bmp	blankscreen.bmp	circle.bmp
89	real_b	real_bottomright_same_b	14	462	23	mask.bmp	blankscreen.bmp	wfn10.bmp	blankscreen.bmp	square.bmp
89	real_b	real_bottomleft_diff_b	15	603	23	mask.bmp	blankscreen.bmp	wmd6.bmp	blankscreen.bmp	square.bmp
89	real_b	real_bottomright_diff_b	16	401	18	mask.bmp	blankscreen.bmp	wmd7.bmp	blankscreen.bmp	circle.bmp
89	real_b	real_bottomleft_diff_b	17	384	23	mask.bmp	blankscreen.bmp	wfn7.bmp	blankscreen.bmp	square.bmp
89	real_b	real_bottomright_diff_b	18	520	23	mask.bmp	blankscreen.bmp	wfd6.bmp	blankscreen.bmp	square.bmp
89	real_b	real_topright_diff_b	19	498	18	mask.bmp	blankscreen.bmp	wmn7.bmp	blankscreen.bmp	circle.bmp
89	real_b	real_topleft_diff_b	20	421	23	mask.bmp	blankscreen.bmp	wmd8.bmp	blankscreen.bmp	square.bmp
89	real_c	real_bottomright_same_c	1	477	23	mask.bmp	blankscreen.bmp	wmn2.bmp	blankscreen.bmp	square.bmp
89	real_c	real_bottomleft_diff_c	2	401	18	mask.bmp	blankscreen.bmp	wfn3.bmp	blankscreen.bmp	circle.bmp
89	real_c	real_topleft_diff_c	3	464	18	mask.bmp	blankscreen.bmp	wfd3.bmp	blankscreen.bmp	circle.bmp
89	real_c	real_topleft_same_c	4	549	23	mask.bmp	blankscreen.bmp	wfd1.bmp	blankscreen.bmp	square.bmp
89	real_c	real_topright_diff_c	5	381	18	mask.bmp	blankscreen.bmp	wmn3.bmp	blankscreen.bmp	circle.bmp
89	real_c	real_bottomleft_diff_c	6	574	18	mask.bmp	blankscreen.bmp	wmd5.bmp	blankscreen.bmp	circle.bmp
89	real_c	real_topright_same_c	7	470	18	mask.bmp	blankscreen.bmp	wmd1.bmp	blankscreen.bmp	circle.bmp
89	real_c	real_topleft_diff_c	8	562	18	mask.bmp	blankscreen.bmp	wmn5.bmp	blankscreen.bmp	circle.bmp
89	real_c	real_bottomright_diff_c	9	522	18	mask.bmp	blankscreen.bmp	wmd3.bmp	blankscreen.bmp	circle.bmp
89	real_c	real_topright_diff_c	10	388	23	mask.bmp	blankscreen.bmp	wfn5.bmp	blankscreen.bmp	square.bmp
89	real_c	real_topright_diff_c	11	460	18	mask.bmp	blankscreen.bmp	wmd4.bmp	blankscreen.bmp	circle.bmp
89	real_c	real_bottomleft_same_c	12	417	23	mask.bmp	blankscreen.bmp	wfd2.bmp	blankscreen.bmp	square.bmp
89	real_c	real_topleft_same_c	13	519	18	mask.bmp	blankscreen.bmp	wfn1.bmp	blankscreen.bmp	circle.bmp
89	real_c	real_topright_same_c	14	409	18	mask.bmp	blankscreen.bmp	wfn2.bmp	blankscreen.bmp	circle.bmp
89	real_c	real_topleft_diff_c	15	400	23	mask.bmp	blankscreen.bmp	wfn4.bmp	blankscreen.bmp	square.bmp
89	real_c	real_bottomleft_same_c	16	502	23	mask.bmp	blankscreen.bmp	wmn1.bmp	blankscreen.bmp	square.bmp
89	real_c	real_bottomright_diff_c	17	441	18	mask.bmp	blankscreen.bmp	wfd5.bmp	blankscreen.bmp	circle.bmp
89	real_c	real_bottomleft_diff_c	18	383	18	mask.bmp	blankscreen.bmp	wfd4.bmp	blankscreen.bmp	circle.bmp
89	real_c	real_bottomright_same_c	19	406	18	mask.bmp	blankscreen.bmp	wmd2.bmp	blankscreen.bmp	circle.bmp
89	real_c	real_bottomright_diff_c	20	389	23	mask.bmp	blankscreen.bmp	wmn4.bmp	blankscreen.bmp	square.bmp
89	real_d	real_topright_same_d	1	344	18	mask.bmp	blankscreen.bmp	wmd7.bmp	blankscreen.bmp	circle.bmp
89	real_d	real_bottomright_diff_d	2	362	18	mask.bmp	blankscreen.bmp	wmn10.bmp	blankscreen.bmp	circle.bmp
89	real_d	real_bottomleft_diff_d	3	402	23	mask.bmp	blankscreen.bmp	wfd10.bmp	blankscreen.bmp	square.bmp
89	real_d	real_topleft_diff_d	4	545	18	mask.bmp	blankscreen.bmp	wmd9.bmp	blankscreen.bmp	circle.bmp
89	real_d	real_topleft_diff_d	5	467	23	mask.bmp	blankscreen.bmp	wfn10.bmp	blankscreen.bmp	square.bmp
89	real_d	real_bottomleft_diff_d	6	447	23	mask.bmp	blankscreen.bmp	wmn9.bmp	blankscreen.bmp	square.bmp
89	real_d	real_topright_diff_d	7	484	23	mask.bmp	blankscreen.bmp	wfn8.bmp	blankscreen.bmp	square.bmp
89	real_d	real_bottomright_diff_d	8	415	18	mask.bmp	blankscreen.bmp	wfd8.bmp	blankscreen.bmp	circle.bmp
89	real_d	real_bottomright_same_d	9	438	18	mask.bmp	blankscreen.bmp	wfd7.bmp	blankscreen.bmp	circle.bmp
89	real_d	real_bottomright_diff_d	10	363	23	mask.bmp	blankscreen.bmp	wfn9.bmp	blankscreen.bmp	square.bmp
89	real_d	real_topright_same_d	11	772	18	mask.bmp	blankscreen.bmp	wfd6.bmp	blankscreen.bmp	circle.bmp
89	real_d	real_bottomleft_diff_d	12	404	23	mask.bmp	blankscreen.bmp	wmd8.bmp	blankscreen.bmp	square.bmp
89	real_d	real_bottomleft_same_d	13	467	23	mask.bmp	blankscreen.bmp	wmn7.bmp	blankscreen.bmp	square.bmp
89	real_d	real_topleft_diff_d	14	415	18	mask.bmp	blankscreen.bmp	wmn8.bmp	blankscreen.bmp	circle.bmp
89	real_d	real_topleft_same_d	15	541	18	mask.bmp	blankscreen.bmp	wmd6.bmp	blankscreen.bmp	circle.bmp
89	real_d	real_topright_diff_d	16	382	18	mask.bmp	blankscreen.bmp	wfd9.bmp	blankscreen.bmp	circle.bmp
89	real_d	real_bottomright_same_d	17	358	23	mask.bmp	blankscreen.bmp	wfn7.bmp	blankscreen.bmp	square.bmp
89	real_d	real_topleft_same_d	18	327	18	mask.bmp	blankscreen.bmp	wmn6.bmp	blankscreen.bmp	circle.bmp
89	real_d	real_topright_diff_d	19	457	18	mask.bmp	blankscreen.bmp	wmd10.bmp	blankscreen.bmp	circle.bmp
89	real_d	real_bottomleft_same_d	20	382	23	mask.bmp	blankscreen.bmp	wfn6.bmp	blankscreen.bmp	circle.bmp
101	practice	practice_topleft_diff	1	2447	23	mask.bmp	blankscreen.bmp	practice9.jpg	blankscreen.bmp	circle.bmp
101	practice	practice_bottomleft_diff	2	1899	23	mask.bmp	blankscreen.bmp	practice11.jpg	blankscreen.bmp	circle.bmp
101	practice	practice_topright_same	3	1973	23	mask.bmp	blankscreen.bmp	practice3.jpg	blankscreen.bmp	circle.bmp
101	practice	practice_bottomright_same	4	1492	23	mask.bmp	blankscreen.bmp	practice8.jpg	blankscreen.bmp	circle.bmp
101	practice	practice_bottomleft_same	5	1318	18	mask.bmp	blankscreen.bmp	practice6.jpg	blankscreen.bmp	square.bmp
101	practice	practice_topleft_same	6	1392	23	mask.bmp	blankscreen.bmp	practice2.jpg	blankscreen.bmp	square.bmp
101	practice	practice_bottomright_diff	7	806	18	mask.bmp	blankscreen.bmp	practice12.jpg	blankscreen.bmp	circle.bmp
101	practice	practice_bottomleft_same	8	1077	23	mask.bmp	blankscreen.bmp	practice5.jpg	blankscreen.bmp	square.bmp
101	practice	practice_bottomright_same	9	1240	18	mask.bmp	blankscreen.bmp	practice7.jpg	blankscreen.bmp	circle.bmp
101	practice	practice_topleft_same	10	1229	18	mask.bmp	blankscreen.bmp	practice1.jpg	blankscreen.bmp	circle.bmp
101	practice	practice_topright_diff	11	1339	23	mask.bmp	blankscreen.bmp	practice10.jpg	blankscreen.bmp	square.bmp
101	practice	practice_topright_same	12	547	18	mask.bmp	blankscreen.bmp	practice4.jpg	blankscreen.bmp	circle.bmp
101	real_a	real_bottomleft_diff_a	1	1118	18	mask.bmp	blankscreen.bmp	wfn1.bmp	blankscreen.bmp	circle.bmp
101	real_a	real_bottomleft_same_a	2	407	18	mask.bmp	blankscreen.bmp	wfn5.bmp	blankscreen.bmp	circle.bmp
101	real_a	real_bottomright_same_a	3	350	23	mask.bmp	blankscreen.bmp	wmn5.bmp	blankscreen.bmp	square.bmp
101	real_a	real_topright_diff_a	4	399	18	mask.bmp	blankscreen.bmp	wmd3.bmp	blankscreen.bmp	circle.bmp
101	real_a	real_bottomleft_same_a	5	270	18	mask.bmp	blankscreen.bmp	wmd4.bmp	blankscreen.bmp	circle.bmp
101	real_a	real_topright_same_a	6	362	23	mask.bmp	blankscreen.bmp	wfd5.bmp	blankscreen.bmp	square.bmp
101	real_a	real_bottomright_diff_a	7	371	18	mask.bmp	blankscreen.bmp	wfn2.bmp	blankscreen.bmp	circle.bmp
101	real_a	real_bottomleft_diff_a	8	403	18	mask.bmp	blankscreen.bmp	wmn2.bmp	blankscreen.bmp	square.bmp
101	real_a	real_topleft_diff_a	9	386	18	mask.bmp	blankscreen.bmp	wfd1.bmp	blankscreen.bmp	square.bmp
101	real_a	real_topright_diff_a	10	537	23	mask.bmp	blankscreen.bmp	wfd2.bmp	blankscreen.bmp	square.bmp
101	real_a	real_bottomright_diff_a	11	635	18	mask.bmp	blankscreen.bmp	wmn3.bmp	blankscreen.bmp	circle.bmp
101	real_a	real_topleft_diff_a	12	776	23	mask.bmp	blankscreen.bmp	wmd2.bmp	blankscreen.bmp	square.bmp
101	real_a	real_bottomright_same_a	13	544	23	mask.bmp	blankscreen.bmp	wmd5.bmp	blankscreen.bmp	circle.bmp
101	real_a	real_topright_same_a	14	553	18	mask.bmp	blankscreen.bmp	wmn4.bmp	blankscreen.bmp	circle.bmp
101	real_a	real_bottomleft_diff_a	15	586	18	mask.bmp	blankscreen.bmp	wfd3.bmp	blankscreen.bmp	circle.bmp
101	real_a	real_topleft_same_a	16	465	23	mask.bmp	blankscreen.bmp	wfd4.bmp	blankscreen.bmp	square.bmp
101	real_a	real_topright_diff_a	17	766	18	mask.bmp	blankscreen.bmp	wmn1.bmp	blankscreen.bmp	circle.bmp
101	real_a	real_bottomright_diff_a	18	494	23	mask.bmp	blankscreen.bmp	wmd1.bmp	blankscreen.bmp	square.bmp
101	real_a	real_topleft_diff_a	19	1105	18	mask.bmp	blankscreen.bmp	wfn3.bmp	blankscreen.bmp	square.bmp
101	real_a	real_topleft_same_a	20	515	23	mask.bmp	blankscreen.bmp	wfn4.bmp	blankscreen.bmp	square.bmp
101	real_b	real_topright_diff_b	1	746	18	mask.bmp	blankscreen.bmp	wfn6.bmp	blankscreen.bmp	circle.bmp
101	real_b	real_topright_diff_b	2	515	18	mask.bmp	blankscreen.bmp	wmn7.bmp	blankscreen.bmp	circle.bmp
101	real_b	real_topleft_same_b	3	485	23	mask.bmp	blankscreen.bmp	wmn9.bmp	blankscreen.bmp	square.bmp
101	real_b	real_topleft_diff_b	4	337	23	mask.bmp	blankscreen.bmp	wfd7.bmp	blankscreen.bmp	square.bmp
101	real_b	real_bottomright_diff_b	5	978	18	mask.bmp	blankscreen.bmp	wmd7.bmp	blankscreen.bmp	circle.bmp
101	real_b	real_topright_same_b	6	810	18	mask.bmp	blankscreen.bmp	wmn10.bmp	blankscreen.bmp	circle.bmp
101	real_b	real_bottomright_same_b	7	497	18	mask.bmp	blankscreen.bmp	wfd10.bmp	blankscreen.bmp	circle.bmp
101	real_b	real_bottomright_diff_b	8	428	18	mask.bmp	blankscreen.bmp	wfn8.bmp	blankscreen.bmp	circle.bmp
101	real_b	real_bottomleft_same_b	9	386	18	mask.bmp	blankscreen.bmp	wfd9.bmp	blankscreen.bmp	circle.bmp
101	real_b	real_topleft_diff_b	10	505	23	mask.bmp	blankscreen.bmp	wmn6.bmp	blankscreen.bmp	circle.bmp
101	real_b	real_topleft_same_b	11	468	18	mask.bmp	blankscreen.bmp	wmd9.bmp	blankscreen.bmp	circle.bmp
101	real_b	real_bottomleft_diff_b	12	456	18	mask.bmp	blankscreen.bmp	wmd6.bmp	blankscreen.bmp	square.bmp
101	real_b	real_topleft_diff_b	13	285	23	mask.bmp	blankscreen.bmp	wmd8.bmp	blankscreen.bmp	circle.bmp
101	real_b	real_bottomleft_same_b	14	625	23	mask.bmp	blankscreen.bmp	wmd10.bmp	blankscreen.bmp	square.bmp
101	real_b	real_topright_same_b	15	391	23	mask.bmp	blankscreen.bmp	wfn9.bmp	blankscreen.bmp	square.bmp
101	real_b	real_bottomleft_diff_b	16	646	23	mask.bmp	blankscreen.bmp	wmn8.bmp	blankscreen.bmp	square.bmp
101	real_b	real_topright_diff_b	17	635	18	mask.bmp	blankscreen.bmp	wfd8.bmp	blankscreen.bmp	circle.bmp
101	real_b	real_bottomright_diff_b	18	481	23	mask.bmp	blankscreen.bmp	wfd6.bmp	blankscreen.bmp	square.bmp
101	real_b	real_bottomleft_diff_b	19	1101	18	mask.bmp	blankscreen.bmp	wfn7.bmp	blankscreen.bmp	circle.bmp
101	real_b	real_bottomright_same_b	20	503	23	mask.bmp	blankscreen.bmp	wfn10.bmp	blankscreen.bmp	square.bmp
101	real_c	real_topleft_same_c	1	602	23	mask.bmp	blankscreen.bmp	wfd1.bmp	blankscreen.bmp	square.bmp
101	real_c	real_topright_diff_c	2	457	18	mask.bmp	blankscreen.bmp	wmd4.bmp	blankscreen.bmp	circle.bmp
101	real_c	real_topright_same_c	3	685	18	mask.bmp	blankscreen.bmp	wmd1.bmp	blankscreen.bmp	circle.bmp
101	real_c	real_bottomright_same_c	4	576	18	mask.bmp	blankscreen.bmp	wmn2.bmp	blankscreen.bmp	circle.bmp
101	real_c	real_bottomright_diff_c	5	545	18	mask.bmp	blankscreen.bmp	wmd3.bmp	blankscreen.bmp	circle.bmp
101	real_c	real_bottomleft_diff_c	6	394	23	mask.bmp	blankscreen.bmp	wfn3.bmp	blankscreen.bmp	square.bmp
101	real_c	real_topleft_diff_c	7	449	23	mask.bmp	blankscreen.bmp	wmn5.bmp	blankscreen.bmp	square.bmp
101	real_c	real_bottomleft_diff_c	8	550	18	mask.bmp	blankscreen.bmp	wmd5.bmp	blankscreen.bmp	circle.bmp
101	real_c	real_bottomleft_same_c	9	455	23	mask.bmp	blankscreen.bmp	wfd2.bmp	blankscreen.bmp	circle.bmp
101	real_c	real_topleft_diff_c	10	732	18	mask.bmp	blankscreen.bmp	wfd3.bmp	blankscreen.bmp	circle.bmp
101	real_c	real_topright_same_c	11	342	23	mask.bmp	blankscreen.bmp	wfn2.bmp	blankscreen.bmp	square.bmp
101	real_c	real_bottomright_same_c	12	319	23	mask.bmp	blankscreen.bmp	wmd2.bmp	blankscreen.bmp	circle.bmp
101	real_c	real_topleft_same_c	13	465	18	mask.bmp	blankscreen.bmp	wfn1.bmp	blankscreen.bmp	circle.bmp
101	real_c	real_topright_diff_c	14	470	23	mask.bmp	blankscreen.bmp	wmn3.bmp	blankscreen.bmp	square.bmp
101	real_c	real_topright_diff_c	15	538	23	mask.bmp	blankscreen.bmp	wfn5.bmp	blankscreen.bmp	square.bmp
101	real_c	real_bottomright_diff_c	16	419	23	mask.bmp	blankscreen.bmp	wmn4.bmp	blankscreen.bmp	square.bmp
101	real_c	real_bottomleft_same_c	17	418	18	mask.bmp	blankscreen.bmp	wmn1.bmp	blankscreen.bmp	circle.bmp
101	real_c	real_bottomleft_diff_c	18	448	18	mask.bmp	blankscreen.bmp	wfd4.bmp	blankscreen.bmp	square.bmp
101	real_c	real_topleft_diff_c	19	436	23	mask.bmp	blankscreen.bmp	wfn4.bmp	blankscreen.bmp	circle.bmp
101	real_c	real_bottomright_diff_c	20	530	18	mask.bmp	blankscreen.bmp	wfd5.bmp	blankscreen.bmp	circle.bmp
101	real_d	real_topright_diff_d	1	537	18	mask.bmp	blankscreen.bmp	wmd10.bmp	blankscreen.bmp	square.bmp
101	real_d	real_bottomleft_diff_d	2	667	18	mask.bmp	blankscreen.bmp	wfd10.bmp	blankscreen.bmp	circle.bmp
101	real_d	real_bottomright_diff_d	3	575	23	mask.bmp	blankscreen.bmp	wmn10.bmp	blankscreen.bmp	square.bmp
101	real_d	real_topright_same_d	4	631	18	mask.bmp	blankscreen.bmp	wfd6.bmp	blankscreen.bmp	circle.bmp
101	real_d	real_topleft_diff_d	5	1044	23	mask.bmp	blankscreen.bmp	wfn10.bmp	blankscreen.bmp	square.bmp
101	real_d	real_bottomright_diff_d	6	737	18	mask.bmp	blankscreen.bmp	wfd8.bmp	blankscreen.bmp	circle.bmp
101	real_d	real_topleft_same_d	7	1187	18	mask.bmp	blankscreen.bmp	wmd6.bmp	blankscreen.bmp	circle.bmp
101	real_d	real_bottomleft_diff_d	8	625	18	mask.bmp	blankscreen.bmp	wmd8.bmp	blankscreen.bmp	circle.bmp
101	real_d	real_topright_diff_d	9	688	18	mask.bmp	blankscreen.bmp	wfd9.bmp	blankscreen.bmp	circle.bmp
101	real_d	real_bottomright_same_d	10	571	23	mask.bmp	blankscreen.bmp	wfd7.bmp	blankscreen.bmp	square.bmp
101	real_d	real_bottomright_diff_d	11	571	23	mask.bmp	blankscreen.bmp	wfn9.bmp	blankscreen.bmp	square.bmp
101	real_d	real_bottomleft_same_d	12	731	18	mask.bmp	blankscreen.bmp	wmn7.bmp	blankscreen.bmp	circle.bmp
101	real_d	real_topright_diff_d	13	565	23	mask.bmp	blankscreen.bmp	wfn8.bmp	blankscreen.bmp	square.bmp
101	real_d	real_bottomleft_same_d	14	581	18	mask.bmp	blankscreen.bmp	wfn6.bmp	blankscreen.bmp	circle.bmp
101	real_d	real_topleft_diff_d	15	685	18	mask.bmp	blankscreen.bmp	wmn8.bmp	blankscreen.bmp	circle.bmp
101	real_d	real_topright_same_d	16	816	18	mask.bmp	blankscreen.bmp	wmd7.bmp	blankscreen.bmp	circle.bmp
101	real_d	real_bottomleft_diff_d	17	430	23	mask.bmp	blankscreen.bmp	wmn9.bmp	blankscreen.bmp	square.bmp
101	real_d	real_topleft_same_d	18	732	18	mask.bmp	blankscreen.bmp	wmn6.bmp	blankscreen.bmp	circle.bmp
101	real_d	real_topleft_diff_d	19	486	18	mask.bmp	blankscreen.bmp	wmd9.bmp	blankscreen.bmp	circle.bmp
101	real_d	real_bottomright_same_d	20	529	18	mask.bmp	blankscreen.bmp	wfn7.bmp	blankscreen.bmp	circle.bmp
106	practice	practice_topleft_diff	1	1488	23	mask.bmp	blankscreen.bmp	practice9.jpg	blankscreen.bmp	square.bmp
106	practice	practice_topleft_same	2	723	18	mask.bmp	blankscreen.bmp	practice2.jpg	blankscreen.bmp	circle.bmp
106	practice	practice_topright_same	3	604	23	mask.bmp	blankscreen.bmp	practice3.jpg	blankscreen.bmp	square.bmp
106	practice	practice_topright_same	4	675	23	mask.bmp	blankscreen.bmp	practice4.jpg	blankscreen.bmp	square.bmp
106	practice	practice_bottomright_same	5	527	23	mask.bmp	blankscreen.bmp	practice7.jpg	blankscreen.bmp	square.bmp
106	practice	practice_bottomright_same	6	385	23	mask.bmp	blankscreen.bmp	practice8.jpg	blankscreen.bmp	square.bmp
106	practice	practice_bottomleft_same	7	640	23	mask.bmp	blankscreen.bmp	practice6.jpg	blankscreen.bmp	square.bmp
106	practice	practice_bottomright_diff	8	702	18	mask.bmp	blankscreen.bmp	practice12.jpg	blankscreen.bmp	circle.bmp
106	practice	practice_bottomleft_diff	9	672	23	mask.bmp	blankscreen.bmp	practice11.jpg	blankscreen.bmp	square.bmp
106	practice	practice_bottomleft_same	10	916	23	mask.bmp	blankscreen.bmp	practice5.jpg	blankscreen.bmp	square.bmp
106	practice	practice_topleft_same	11	606	18	mask.bmp	blankscreen.bmp	practice1.jpg	blankscreen.bmp	circle.bmp
106	practice	practice_topright_diff	12	805	23	mask.bmp	blankscreen.bmp	practice10.jpg	blankscreen.bmp	square.bmp
106	real_a	real_topleft_diff_a	1	788	18	mask.bmp	blankscreen.bmp	wfn3.bmp	blankscreen.bmp	circle.bmp
106	real_a	real_bottomright_diff_a	2	819	23	mask.bmp	blankscreen.bmp	wmn3.bmp	blankscreen.bmp	square.bmp
106	real_a	real_bottomleft_same_a	3	649	23	mask.bmp	blankscreen.bmp	wfn5.bmp	blankscreen.bmp	square.bmp
106	real_a	real_topleft_same_a	4	622	23	mask.bmp	blankscreen.bmp	wfn4.bmp	blankscreen.bmp	circle.bmp
106	real_a	real_bottomleft_diff_a	5	748	18	mask.bmp	blankscreen.bmp	wmn2.bmp	blankscreen.bmp	circle.bmp
106	real_a	real_topright_same_a	6	781	18	mask.bmp	blankscreen.bmp	wfd5.bmp	blankscreen.bmp	circle.bmp
106	real_a	real_topright_diff_a	7	693	18	mask.bmp	blankscreen.bmp	wmn1.bmp	blankscreen.bmp	circle.bmp
106	real_a	real_bottomright_diff_a	8	616	18	mask.bmp	blankscreen.bmp	wfn2.bmp	blankscreen.bmp	circle.bmp
106	real_a	real_topright_diff_a	9	958	23	mask.bmp	blankscreen.bmp	wfd2.bmp	blankscreen.bmp	square.bmp
106	real_a	real_bottomleft_diff_a	10	734	23	mask.bmp	blankscreen.bmp	wfn1.bmp	blankscreen.bmp	square.bmp
106	real_a	real_bottomright_same_a	11	823	23	mask.bmp	blankscreen.bmp	wmd5.bmp	blankscreen.bmp	square.bmp
106	real_a	real_topleft_diff_a	12	917	18	mask.bmp	blankscreen.bmp	wmd2.bmp	blankscreen.bmp	circle.bmp
106	real_a	real_topleft_diff_a	13	919	18	mask.bmp	blankscreen.bmp	wfd1.bmp	blankscreen.bmp	circle.bmp
106	real_a	real_bottomright_diff_a	14	697	23	mask.bmp	blankscreen.bmp	wmd1.bmp	blankscreen.bmp	square.bmp
106	real_a	real_bottomright_same_a	15	732	18	mask.bmp	blankscreen.bmp	wmn5.bmp	blankscreen.bmp	circle.bmp
106	real_a	real_topleft_same_a	16	1013	18	mask.bmp	blankscreen.bmp	wfd4.bmp	blankscreen.bmp	circle.bmp
106	real_a	real_bottomleft_same_a	17	947	23	mask.bmp	blankscreen.bmp	wmd4.bmp	blankscreen.bmp	square.bmp
106	real_a	real_topright_same_a	18	860	18	mask.bmp	blankscreen.bmp	wmn4.bmp	blankscreen.bmp	circle.bmp
106	real_a	real_bottomleft_diff_a	19	881	23	mask.bmp	blankscreen.bmp	wfd3.bmp	blankscreen.bmp	square.bmp
106	real_a	real_topright_diff_a	20	605	23	mask.bmp	blankscreen.bmp	wmd3.bmp	blankscreen.bmp	circle.bmp
106	real_b	real_bottomright_same_b	1	786	18	mask.bmp	blankscreen.bmp	wfn10.bmp	blankscreen.bmp	circle.bmp
106	real_b	real_bottomleft_same_b	2	705	23	mask.bmp	blankscreen.bmp	wmd10.bmp	blankscreen.bmp	square.bmp
106	real_b	real_topleft_diff_b	3	692	23	mask.bmp	blankscreen.bmp	wmn6.bmp	blankscreen.bmp	square.bmp
106	real_b	real_topright_diff_b	4	695	23	mask.bmp	blankscreen.bmp	wfd8.bmp	blankscreen.bmp	square.bmp
106	real_b	real_topleft_diff_b	5	763	18	mask.bmp	blankscreen.bmp	wmd8.bmp	blankscreen.bmp	circle.bmp
106	real_b	real_topleft_diff_b	6	803	23	mask.bmp	blankscreen.bmp	wfd7.bmp	blankscreen.bmp	square.bmp
106	real_b	real_topright_diff_b	7	929	23	mask.bmp	blankscreen.bmp	wmn7.bmp	blankscreen.bmp	square.bmp
106	real_b	real_bottomleft_same_b	8	803	23	mask.bmp	blankscreen.bmp	wfd9.bmp	blankscreen.bmp	square.bmp
106	real_b	real_topleft_same_b	9	689	23	mask.bmp	blankscreen.bmp	wmn9.bmp	blankscreen.bmp	square.bmp
106	real_b	real_bottomright_same_b	10	821	18	mask.bmp	blankscreen.bmp	wfd10.bmp	blankscreen.bmp	circle.bmp
106	real_b	real_topright_diff_b	11	835	23	mask.bmp	blankscreen.bmp	wfn6.bmp	blankscreen.bmp	square.bmp
106	real_b	real_topright_same_b	12	872	18	mask.bmp	blankscreen.bmp	wmn10.bmp	blankscreen.bmp	circle.bmp
106	real_b	real_bottomright_diff_b	13	651	23	mask.bmp	blankscreen.bmp	wfd6.bmp	blankscreen.bmp	square.bmp
106	real_b	real_bottomright_diff_b	14	528	18	mask.bmp	blankscreen.bmp	wfn8.bmp	blankscreen.bmp	circle.bmp
106	real_b	real_bottomright_diff_b	15	1050	23	mask.bmp	blankscreen.bmp	wmd7.bmp	blankscreen.bmp	square.bmp
106	real_b	real_topleft_same_b	16	822	18	mask.bmp	blankscreen.bmp	wmd9.bmp	blankscreen.bmp	circle.bmp
106	real_b	real_bottomleft_diff_b	17	716	18	mask.bmp	blankscreen.bmp	wmn8.bmp	blankscreen.bmp	circle.bmp
106	real_b	real_topright_same_b	18	614	18	mask.bmp	blankscreen.bmp	wfn9.bmp	blankscreen.bmp	circle.bmp
106	real_b	real_bottomleft_diff_b	19	597	23	mask.bmp	blankscreen.bmp	wfn7.bmp	blankscreen.bmp	square.bmp
106	real_b	real_bottomleft_diff_b	20	756	18	mask.bmp	blankscreen.bmp	wmd6.bmp	blankscreen.bmp	circle.bmp
106	real_c	real_bottomright_diff_c	1	849	23	mask.bmp	blankscreen.bmp	wfd5.bmp	blankscreen.bmp	square.bmp
106	real_c	real_bottomleft_same_c	2	669	18	mask.bmp	blankscreen.bmp	wfd2.bmp	blankscreen.bmp	circle.bmp
106	real_c	real_bottomleft_diff_c	3	489	23	mask.bmp	blankscreen.bmp	wfn3.bmp	blankscreen.bmp	square.bmp
106	real_c	real_bottomright_diff_c	4	645	18	mask.bmp	blankscreen.bmp	wmd3.bmp	blankscreen.bmp	circle.bmp
106	real_c	real_topright_diff_c	5	1002	23	mask.bmp	blankscreen.bmp	wfn5.bmp	blankscreen.bmp	square.bmp
106	real_c	real_bottomright_diff_c	6	1024	18	mask.bmp	blankscreen.bmp	wmn4.bmp	blankscreen.bmp	circle.bmp
106	real_c	real_bottomleft_same_c	7	718	23	mask.bmp	blankscreen.bmp	wmn1.bmp	blankscreen.bmp	square.bmp
106	real_c	real_topright_same_c	8	568	18	mask.bmp	blankscreen.bmp	wfn2.bmp	blankscreen.bmp	circle.bmp
106	real_c	real_topleft_diff_c	9	624	18	mask.bmp	blankscreen.bmp	wmn5.bmp	blankscreen.bmp	circle.bmp
106	real_c	real_bottomright_same_c	10	710	23	mask.bmp	blankscreen.bmp	wmn2.bmp	blankscreen.bmp	square.bmp
106	real_c	real_topleft_same_c	11	656	18	mask.bmp	blankscreen.bmp	wfn1.bmp	blankscreen.bmp	circle.bmp
106	real_c	real_topleft_diff_c	12	821	18	mask.bmp	blankscreen.bmp	wfd3.bmp	blankscreen.bmp	circle.bmp
106	real_c	real_topleft_diff_c	13	619	18	mask.bmp	blankscreen.bmp	wfn4.bmp	blankscreen.bmp	circle.bmp
106	real_c	real_bottomleft_diff_c	14	625	18	mask.bmp	blankscreen.bmp	wfd4.bmp	blankscreen.bmp	circle.bmp
106	real_c	real_bottomright_same_c	15	423	18	mask.bmp	blankscreen.bmp	wmd2.bmp	blankscreen.bmp	circle.bmp
106	real_c	real_topright_same_c	16	597	23	mask.bmp	blankscreen.bmp	wmd1.bmp	blankscreen.bmp	square.bmp
106	real_c	real_bottomleft_diff_c	17	924	23	mask.bmp	blankscreen.bmp	wmd5.bmp	blankscreen.bmp	square.bmp
106	real_c	real_topleft_same_c	18	838	23	mask.bmp	blankscreen.bmp	wfd1.bmp	blankscreen.bmp	square.bmp
106	real_c	real_topright_diff_c	19	579	23	mask.bmp	blankscreen.bmp	wmd4.bmp	blankscreen.bmp	square.bmp
106	real_c	real_topright_diff_c	20	875	23	mask.bmp	blankscreen.bmp	wmn3.bmp	blankscreen.bmp	square.bmp
106	real_d	real_bottomright_diff_d	1	654	23	mask.bmp	blankscreen.bmp	wfn9.bmp	blankscreen.bmp	square.bmp
106	real_d	real_topleft_diff_d	2	427	23	mask.bmp	blankscreen.bmp	wmn8.bmp	blankscreen.bmp	square.bmp
106	real_d	real_bottomright_diff_d	3	433	23	mask.bmp	blankscreen.bmp	wmn10.bmp	blankscreen.bmp	square.bmp
106	real_d	real_bottomright_diff_d	4	334	18	mask.bmp	blankscreen.bmp	wfd8.bmp	blankscreen.bmp	circle.bmp
106	real_d	real_topright_same_d	5	312	23	mask.bmp	blankscreen.bmp	wfd6.bmp	blankscreen.bmp	square.bmp
106	real_d	real_topright_diff_d	6	483	18	mask.bmp	blankscreen.bmp	wmd10.bmp	blankscreen.bmp	circle.bmp
106	real_d	real_bottomleft_diff_d	7	582	23	mask.bmp	blankscreen.bmp	wmd8.bmp	blankscreen.bmp	square.bmp
106	real_d	real_bottomright_same_d	8	414	18	mask.bmp	blankscreen.bmp	wfn7.bmp	blankscreen.bmp	circle.bmp
106	real_d	real_topright_diff_d	9	517	18	mask.bmp	blankscreen.bmp	wfd9.bmp	blankscreen.bmp	square.bmp
106	real_d	real_bottomright_same_d	10	735	18	mask.bmp	blankscreen.bmp	wfd7.bmp	blankscreen.bmp	circle.bmp
106	real_d	real_bottomleft_diff_d	11	1064	18	mask.bmp	blankscreen.bmp	wfd10.bmp	blankscreen.bmp	circle.bmp
106	real_d	real_bottomleft_same_d	12	572	23	mask.bmp	blankscreen.bmp	wfn6.bmp	blankscreen.bmp	square.bmp
106	real_d	real_topleft_same_d	13	732	18	mask.bmp	blankscreen.bmp	wmd6.bmp	blankscreen.bmp	circle.bmp
106	real_d	real_topleft_same_d	14	661	18	mask.bmp	blankscreen.bmp	wmn6.bmp	blankscreen.bmp	square.bmp
106	real_d	real_topright_same_d	15	890	18	mask.bmp	blankscreen.bmp	wmd7.bmp	blankscreen.bmp	circle.bmp
106	real_d	real_topleft_diff_d	16	589	18	mask.bmp	blankscreen.bmp	wfn10.bmp	blankscreen.bmp	circle.bmp
106	real_d	real_topleft_diff_d	17	492	23	mask.bmp	blankscreen.bmp	wmd9.bmp	blankscreen.bmp	square.bmp
106	real_d	real_topright_diff_d	18	552	18	mask.bmp	blankscreen.bmp	wfn8.bmp	blankscreen.bmp	circle.bmp
106	real_d	real_bottomleft_diff_d	19	832	18	mask.bmp	blankscreen.bmp	wmn9.bmp	blankscreen.bmp	circle.bmp
106	real_d	real_bottomleft_same_d	20	750	23	mask.bmp	blankscreen.bmp	wmn7.bmp	blankscreen.bmp	square.bmp
110	practice	practice_bottomright_same	1	1079	23	mask.bmp	blankscreen.bmp	practice8.jpg	blankscreen.bmp	circle.bmp
110	practice	practice_bottomright_same	2	659	23	mask.bmp	blankscreen.bmp	practice7.jpg	blankscreen.bmp	square.bmp
110	practice	practice_bottomleft_same	3	2983	18	mask.bmp	blankscreen.bmp	practice5.jpg	blankscreen.bmp	square.bmp
110	practice	practice_topright_same	4	733	18	mask.bmp	blankscreen.bmp	practice3.jpg	blankscreen.bmp	square.bmp
110	practice	practice_topleft_same	5	1183	18	mask.bmp	blankscreen.bmp	practice1.jpg	blankscreen.bmp	square.bmp
110	practice	practice_bottomleft_diff	6	782	18	mask.bmp	blankscreen.bmp	practice11.jpg	blankscreen.bmp	square.bmp
110	practice	practice_topright_same	7	2085	23	mask.bmp	blankscreen.bmp	practice4.jpg	blankscreen.bmp	square.bmp
110	practice	practice_bottomleft_same	8	703	23	mask.bmp	blankscreen.bmp	practice6.jpg	blankscreen.bmp	square.bmp
110	practice	practice_topleft_diff	9	786	23	mask.bmp	blankscreen.bmp	practice9.jpg	blankscreen.bmp	square.bmp
110	practice	practice_topleft_same	10	529	18	mask.bmp	blankscreen.bmp	practice2.jpg	blankscreen.bmp	circle.bmp
110	practice	practice_bottomright_diff	11	627	18	mask.bmp	blankscreen.bmp	practice12.jpg	blankscreen.bmp	circle.bmp
110	practice	practice_topright_diff	12	569	18	mask.bmp	blankscreen.bmp	practice10.jpg	blankscreen.bmp	circle.bmp
110	real_a	real_bottomleft_diff_a	1	895	18	mask.bmp	blankscreen.bmp	wfn1.bmp	blankscreen.bmp	circle.bmp
110	real_a	real_topright_diff_a	2	601	23	mask.bmp	blankscreen.bmp	wmd3.bmp	blankscreen.bmp	circle.bmp
110	real_a	real_topleft_diff_a	3	2296	23	mask.bmp	blankscreen.bmp	wmd2.bmp	blankscreen.bmp	square.bmp
110	real_a	real_topleft_diff_a	4	858	23	mask.bmp	blankscreen.bmp	wfd1.bmp	blankscreen.bmp	square.bmp
110	real_a	real_topright_diff_a	5	1087	18	mask.bmp	blankscreen.bmp	wfd2.bmp	blankscreen.bmp	circle.bmp
110	real_a	real_bottomright_diff_a	6	977	18	mask.bmp	blankscreen.bmp	wfn2.bmp	blankscreen.bmp	circle.bmp
110	real_a	real_bottomleft_diff_a	7	761	18	mask.bmp	blankscreen.bmp	wfd3.bmp	blankscreen.bmp	circle.bmp
110	real_a	real_bottomright_diff_a	8	1034	23	mask.bmp	blankscreen.bmp	wmd1.bmp	blankscreen.bmp	square.bmp
110	real_a	real_bottomright_same_a	9	631	18	mask.bmp	blankscreen.bmp	wmd5.bmp	blankscreen.bmp	circle.bmp
110	real_a	real_topleft_diff_a	10	597	18	mask.bmp	blankscreen.bmp	wfn3.bmp	blankscreen.bmp	circle.bmp
110	real_a	real_topleft_same_a	11	1268	18	mask.bmp	blankscreen.bmp	wfd4.bmp	blankscreen.bmp	circle.bmp
110	real_a	real_bottomleft_diff_a	12	503	18	mask.bmp	blankscreen.bmp	wmn2.bmp	blankscreen.bmp	circle.bmp
110	real_a	real_topleft_same_a	13	594	18	mask.bmp	blankscreen.bmp	wfn4.bmp	blankscreen.bmp	circle.bmp
110	real_a	real_bottomright_diff_a	14	585	23	mask.bmp	blankscreen.bmp	wmn3.bmp	blankscreen.bmp	square.bmp
110	real_a	real_topright_diff_a	15	545	18	mask.bmp	blankscreen.bmp	wmn1.bmp	blankscreen.bmp	circle.bmp
110	real_a	real_bottomright_same_a	16	658	23	mask.bmp	blankscreen.bmp	wmn5.bmp	blankscreen.bmp	square.bmp
110	real_a	real_bottomleft_same_a	17	735	23	mask.bmp	blankscreen.bmp	wmd4.bmp	blankscreen.bmp	square.bmp
110	real_a	real_topright_same_a	18	744	18	mask.bmp	blankscreen.bmp	wfd5.bmp	blankscreen.bmp	circle.bmp
110	real_a	real_bottomleft_same_a	19	649	23	mask.bmp	blankscreen.bmp	wfn5.bmp	blankscreen.bmp	square.bmp
110	real_a	real_topright_same_a	20	790	23	mask.bmp	blankscreen.bmp	wmn4.bmp	blankscreen.bmp	square.bmp
110	real_b	real_topright_same_b	1	877	18	mask.bmp	blankscreen.bmp	wmn10.bmp	blankscreen.bmp	circle.bmp
110	real_b	real_bottomleft_diff_b	2	657	23	mask.bmp	blankscreen.bmp	wmd6.bmp	blankscreen.bmp	square.bmp
110	real_b	real_bottomleft_same_b	3	893	18	mask.bmp	blankscreen.bmp	wmd10.bmp	blankscreen.bmp	circle.bmp
110	real_b	real_bottomright_same_b	4	608	23	mask.bmp	blankscreen.bmp	wfn10.bmp	blankscreen.bmp	square.bmp
110	real_b	real_bottomleft_same_b	5	615	23	mask.bmp	blankscreen.bmp	wfd9.bmp	blankscreen.bmp	square.bmp
110	real_b	real_topleft_diff_b	6	845	23	mask.bmp	blankscreen.bmp	wmn6.bmp	blankscreen.bmp	square.bmp
110	real_b	real_topright_diff_b	7	786	18	mask.bmp	blankscreen.bmp	wfd8.bmp	blankscreen.bmp	circle.bmp
110	real_b	real_topleft_diff_b	8	1489	23	mask.bmp	blankscreen.bmp	wmd8.bmp	blankscreen.bmp	square.bmp
110	real_b	real_bottomright_same_b	9	716	23	mask.bmp	blankscreen.bmp	wfd10.bmp	blankscreen.bmp	square.bmp
110	real_b	real_topleft_same_b	10	710	23	mask.bmp	blankscreen.bmp	wmn9.bmp	blankscreen.bmp	square.bmp
110	real_b	real_topleft_same_b	11	400	23	mask.bmp	blankscreen.bmp	wmd9.bmp	blankscreen.bmp	square.bmp
110	real_b	real_topright_same_b	12	367	23	mask.bmp	blankscreen.bmp	wfn9.bmp	blankscreen.bmp	square.bmp
110	real_b	real_bottomright_diff_b	13	463	18	mask.bmp	blankscreen.bmp	wfn8.bmp	blankscreen.bmp	circle.bmp
110	real_b	real_bottomleft_diff_b	14	436	23	mask.bmp	blankscreen.bmp	wfn7.bmp	blankscreen.bmp	square.bmp
110	real_b	real_bottomright_diff_b	15	386	23	mask.bmp	blankscreen.bmp	wmd7.bmp	blankscreen.bmp	square.bmp
110	real_b	real_topright_diff_b	16	457	18	mask.bmp	blankscreen.bmp	wmn7.bmp	blankscreen.bmp	circle.bmp
110	real_b	real_bottomright_diff_b	17	494	23	mask.bmp	blankscreen.bmp	wfd6.bmp	blankscreen.bmp	square.bmp
110	real_b	real_topright_diff_b	18	649	23	mask.bmp	blankscreen.bmp	wfn6.bmp	blankscreen.bmp	square.bmp
110	real_b	real_bottomleft_diff_b	19	646	23	mask.bmp	blankscreen.bmp	wmn8.bmp	blankscreen.bmp	square.bmp
110	real_b	real_topleft_diff_b	20	507	18	mask.bmp	blankscreen.bmp	wfd7.bmp	blankscreen.bmp	circle.bmp
110	real_c	real_topright_diff_c	1	809	18	mask.bmp	blankscreen.bmp	wmn3.bmp	blankscreen.bmp	circle.bmp
110	real_c	real_bottomright_same_c	2	359	18	mask.bmp	blankscreen.bmp	wmn2.bmp	blankscreen.bmp	circle.bmp
110	real_c	real_bottomleft_diff_c	3	400	18	mask.bmp	blankscreen.bmp	wfd4.bmp	blankscreen.bmp	circle.bmp
110	real_c	real_topleft_diff_c	4	447	23	mask.bmp	blankscreen.bmp	wfd3.bmp	blankscreen.bmp	square.bmp
110	real_c	real_bottomleft_diff_c	5	460	18	mask.bmp	blankscreen.bmp	wmd5.bmp	blankscreen.bmp	circle.bmp
110	real_c	real_bottomright_diff_c	6	329	23	mask.bmp	blankscreen.bmp	wmd3.bmp	blankscreen.bmp	square.bmp
110	real_c	real_topright_same_c	7	355	18	mask.bmp	blankscreen.bmp	wfn2.bmp	blankscreen.bmp	circle.bmp
110	real_c	real_topleft_diff_c	8	428	18	mask.bmp	blankscreen.bmp	wmn5.bmp	blankscreen.bmp	circle.bmp
110	real_c	real_topleft_same_c	9	410	18	mask.bmp	blankscreen.bmp	wfn1.bmp	blankscreen.bmp	circle.bmp
110	real_c	real_bottomleft_same_c	10	385	18	mask.bmp	blankscreen.bmp	wmn1.bmp	blankscreen.bmp	circle.bmp
110	real_c	real_bottomright_diff_c	11	401	23	mask.bmp	blankscreen.bmp	wmn4.bmp	blankscreen.bmp	square.bmp
110	real_c	real_topleft_same_c	12	432	18	mask.bmp	blankscreen.bmp	wfd1.bmp	blankscreen.bmp	circle.bmp
110	real_c	real_bottomleft_diff_c	13	430	23	mask.bmp	blankscreen.bmp	wfn3.bmp	blankscreen.bmp	square.bmp
110	real_c	real_topleft_diff_c	14	452	23	mask.bmp	blankscreen.bmp	wfn4.bmp	blankscreen.bmp	square.bmp
110	real_c	real_topright_diff_c	15	521	23	mask.bmp	blankscreen.bmp	wmd4.bmp	blankscreen.bmp	square.bmp
110	real_c	real_bottomleft_same_c	16	507	23	mask.bmp	blankscreen.bmp	wfd2.bmp	blankscreen.bmp	square.bmp
110	real_c	real_topright_diff_c	17	413	23	mask.bmp	blankscreen.bmp	wfn5.bmp	blankscreen.bmp	square.bmp
110	real_c	real_topright_same_c	18	388	18	mask.bmp	blankscreen.bmp	wmd1.bmp	blankscreen.bmp	circle.bmp
110	real_c	real_bottomright_diff_c	19	340	18	mask.bmp	blankscreen.bmp	wfd5.bmp	blankscreen.bmp	circle.bmp
110	real_c	real_bottomright_same_c	20	493	18	mask.bmp	blankscreen.bmp	wmd2.bmp	blankscreen.bmp	circle.bmp
110	real_d	real_bottomleft_diff_d	1	539	18	mask.bmp	blankscreen.bmp	wmn9.bmp	blankscreen.bmp	circle.bmp
110	real_d	real_bottomleft_diff_d	2	428	23	mask.bmp	blankscreen.bmp	wmd8.bmp	blankscreen.bmp	square.bmp
110	real_d	real_bottomright_same_d	3	410	23	mask.bmp	blankscreen.bmp	wfn7.bmp	blankscreen.bmp	square.bmp
110	real_d	real_topleft_same_d	4	345	18	mask.bmp	blankscreen.bmp	wmn6.bmp	blankscreen.bmp	circle.bmp
110	real_d	real_bottomleft_same_d	5	843	18	mask.bmp	blankscreen.bmp	wmn7.bmp	blankscreen.bmp	circle.bmp
110	real_d	real_topright_diff_d	6	416	18	mask.bmp	blankscreen.bmp	wmd10.bmp	blankscreen.bmp	circle.bmp
110	real_d	real_topleft_diff_d	7	534	18	mask.bmp	blankscreen.bmp	wfn10.bmp	blankscreen.bmp	circle.bmp
110	real_d	real_topleft_same_d	8	383	23	mask.bmp	blankscreen.bmp	wmd6.bmp	blankscreen.bmp	square.bmp
110	real_d	real_topright_same_d	9	415	18	mask.bmp	blankscreen.bmp	wfd6.bmp	blankscreen.bmp	circle.bmp
110	real_d	real_topright_same_d	10	494	23	mask.bmp	blankscreen.bmp	wmd7.bmp	blankscreen.bmp	square.bmp
110	real_d	real_bottomright_diff_d	11	361	18	mask.bmp	blankscreen.bmp	wmn10.bmp	blankscreen.bmp	circle.bmp
110	real_d	real_topleft_diff_d	12	386	18	mask.bmp	blankscreen.bmp	wmd9.bmp	blankscreen.bmp	square.bmp
110	real_d	real_bottomright_same_d	13	385	23	mask.bmp	blankscreen.bmp	wfd7.bmp	blankscreen.bmp	square.bmp
110	real_d	real_bottomleft_same_d	14	489	23	mask.bmp	blankscreen.bmp	wfn6.bmp	blankscreen.bmp	square.bmp
110	real_d	real_bottomright_diff_d	15	436	23	mask.bmp	blankscreen.bmp	wfd8.bmp	blankscreen.bmp	square.bmp
110	real_d	real_topright_diff_d	16	482	18	mask.bmp	blankscreen.bmp	wfd9.bmp	blankscreen.bmp	circle.bmp
110	real_d	real_topright_diff_d	17	542	18	mask.bmp	blankscreen.bmp	wfn8.bmp	blankscreen.bmp	circle.bmp
110	real_d	real_topleft_diff_d	18	439	18	mask.bmp	blankscreen.bmp	wmn8.bmp	blankscreen.bmp	circle.bmp
110	real_d	real_bottomleft_diff_d	19	557	18	mask.bmp	blankscreen.bmp	wfd10.bmp	blankscreen.bmp	circle.bmp
110	real_d	real_bottomright_diff_d	20	365	18	mask.bmp	blankscreen.bmp	wfn9.bmp	blankscreen.bmp	circle.bmp
124	practice	practice_topleft_diff	1	1168	18	mask.bmp	blankscreen.bmp	practice9.jpg	blankscreen.bmp	circle.bmp
124	practice	practice_bottomright_same	2	960	23	mask.bmp	blankscreen.bmp	practice7.jpg	blankscreen.bmp	square.bmp
124	practice	practice_topright_same	3	696	23	mask.bmp	blankscreen.bmp	practice4.jpg	blankscreen.bmp	square.bmp
124	practice	practice_topleft_same	4	2475	18	mask.bmp	blankscreen.bmp	practice1.jpg	blankscreen.bmp	circle.bmp
124	practice	practice_bottomright_same	5	902	18	mask.bmp	blankscreen.bmp	practice8.jpg	blankscreen.bmp	circle.bmp
124	practice	practice_bottomleft_diff	6	744	18	mask.bmp	blankscreen.bmp	practice11.jpg	blankscreen.bmp	circle.bmp
124	practice	practice_bottomleft_same	7	785	18	mask.bmp	blankscreen.bmp	practice5.jpg	blankscreen.bmp	circle.bmp
124	practice	practice_topright_diff	8	560	23	mask.bmp	blankscreen.bmp	practice10.jpg	blankscreen.bmp	square.bmp
124	practice	practice_topright_same	9	841	18	mask.bmp	blankscreen.bmp	practice3.jpg	blankscreen.bmp	circle.bmp
124	practice	practice_topleft_same	10	790	18	mask.bmp	blankscreen.bmp	practice2.jpg	blankscreen.bmp	circle.bmp
124	practice	practice_bottomleft_same	11	629	18	mask.bmp	blankscreen.bmp	practice6.jpg	blankscreen.bmp	circle.bmp
124	practice	practice_bottomright_diff	12	523	23	mask.bmp	blankscreen.bmp	practice12.jpg	blankscreen.bmp	square.bmp
124	real_a	real_topleft_same_a	1	2915	23	mask.bmp	blankscreen.bmp	wfn4.bmp	blankscreen.bmp	square.bmp
124	real_a	real_bottomleft_same_a	2	964	18	mask.bmp	blankscreen.bmp	wmd4.bmp	blankscreen.bmp	circle.bmp
124	real_a	real_topright_diff_a	3	868	23	mask.bmp	blankscreen.bmp	wfd2.bmp	blankscreen.bmp	square.bmp
124	real_a	real_topright_diff_a	4	2120	23	mask.bmp	blankscreen.bmp	wmn1.bmp	blankscreen.bmp	square.bmp
124	real_a	real_topleft_diff_a	5	993	18	mask.bmp	blankscreen.bmp	wfn3.bmp	blankscreen.bmp	circle.bmp
124	real_a	real_bottomleft_diff_a	6	1312	23	mask.bmp	blankscreen.bmp	wfd3.bmp	blankscreen.bmp	square.bmp
124	real_a	real_topleft_diff_a	7	690	23	mask.bmp	blankscreen.bmp	wmd2.bmp	blankscreen.bmp	square.bmp
124	real_a	real_bottomright_diff_a	8	949	18	mask.bmp	blankscreen.bmp	wmn3.bmp	blankscreen.bmp	circle.bmp
124	real_a	real_topright_same_a	9	998	18	mask.bmp	blankscreen.bmp	wmn4.bmp	blankscreen.bmp	circle.bmp
124	real_a	real_topright_diff_a	10	628	23	mask.bmp	blankscreen.bmp	wmd3.bmp	blankscreen.bmp	square.bmp
