subject	blockcode	trialcode	trialnum	latency	response	stimulusitem1	stimulusitem2	stimulusitem3	stimulusitem4	stimulusitem5
999914	practice	practice_topleft_same	1	809	18	mask.bmp	blankscreen.bmp	practice2.jpg	blankscreen.bmp	circle.bmp
999914	practice	practice_topleft_diff	2	743	23	mask.bmp	blankscreen.bmp	practice9.jpg	blankscreen.bmp	square.bmp
999914	practice	practice_topright_diff	3	800	18	mask.bmp	blankscreen.bmp	practice10.jpg	blankscreen.bmp	circle.bmp
999914	practice	practice_bottomleft_same	4	791	23	mask.bmp	blankscreen.bmp	practice5.jpg	blankscreen.bmp	square.bmp
999914	practice	practice_bottomright_same	5	518	18	mask.bmp	blankscreen.bmp	practice7.jpg	blankscreen.bmp	circle.bmp
999914	practice	practice_bottomleft_diff	6	712	23	mask.bmp	blankscreen.bmp	practice11.jpg	blankscreen.bmp	square.bmp
999914	practice	practice_bottomright_diff	7	1090	23	mask.bmp	blankscreen.bmp	practice12.jpg	blankscreen.bmp	square.bmp
999914	practice	practice_topleft_same	8	541	23	mask.bmp	blankscreen.bmp	practice1.jpg	blankscreen.bmp	square.bmp
999914	practice	practice_topright_same	9	543	18	mask.bmp	blankscreen.bmp	practice4.jpg	blankscreen.bmp	circle.bmp
999914	practice	practice_bottomright_same	10	1168	18	mask.bmp	blankscreen.bmp	practice8.jpg	blankscreen.bmp	square.bmp
999914	practice	practice_topright_same	11	1024	23	mask.bmp	blankscreen.bmp	practice3.jpg	blankscreen.bmp	square.bmp
999914	practice	practice_bottomleft_same	12	1125	23	mask.bmp	blankscreen.bmp	practice6.jpg	blankscreen.bmp	square.bmp
999914	real_a	real_bottomleft_diff_a	1	1397	23	mask.bmp	blankscreen.bmp	wfd3.bmp	blankscreen.bmp	square.bmp
999914	real_a	real_topright_same_a	2	547	18	mask.bmp	blankscreen.bmp	wfd5.bmp	blankscreen.bmp	circle.bmp
999914	real_a	real_topleft_same_a	3	1045	18	mask.bmp	blankscreen.bmp	wfd4.bmp	blankscreen.bmp	circle.bmp
999914	real_a	real_topright_diff_a	4	689	23	mask.bmp	blankscreen.bmp	wmn1.bmp	blankscreen.bmp	square.bmp
999914	real_a	real_bottomright_same_a	5	957	18	mask.bmp	blankscreen.bmp	wmn5.bmp	blankscreen.bmp	circle.bmp
999914	real_a	real_bottomright_same_a	6	661	23	mask.bmp	blankscreen.bmp	wmd5.bmp	blankscreen.bmp	square.bmp
999914	real_a	real_topright_same_a	7	578	18	mask.bmp	blankscreen.bmp	wmn4.bmp	blankscreen.bmp	circle.bmp
999914	real_a	real_topleft_diff_a	8	1073	18	mask.bmp	blankscreen.bmp	wfd1.bmp	blankscreen.bmp	circle.bmp
999914	real_a	real_topleft_same_a	9	829	23	mask.bmp	blankscreen.bmp	wfn4.bmp	blankscreen.bmp	square.bmp
999914	real_a	real_bottomright_diff_a	10	755	18	mask.bmp	blankscreen.bmp	wmn3.bmp	blankscreen.bmp	circle.bmp
999914	real_a	real_bottomleft_diff_a	11	731	18	mask.bmp	blankscreen.bmp	wmn2.bmp	blankscreen.bmp	circle.bmp
999914	real_a	real_bottomleft_same_a	12	597	18	mask.bmp	blankscreen.bmp	wfn5.bmp	blankscreen.bmp	circle.bmp
999914	real_a	real_topleft_diff_a	13	773	18	mask.bmp	blankscreen.bmp	wfn3.bmp	blankscreen.bmp	circle.bmp
999914	real_a	real_bottomright_diff_a	14	812	23	mask.bmp	blankscreen.bmp	wfn2.bmp	blankscreen.bmp	square.bmp
999914	real_a	real_topright_diff_a	15	739	18	mask.bmp	blankscreen.bmp	wmd3.bmp	blankscreen.bmp	circle.bmp
999914	real_a	real_bottomleft_same_a	16	628	18	mask.bmp	blankscreen.bmp	wmd4.bmp	blankscreen.bmp	circle.bmp
999914	real_a	real_bottomleft_diff_a	17	962	23	mask.bmp	blankscreen.bmp	wfn1.bmp	blankscreen.bmp	square.bmp
999914	real_a	real_topleft_diff_a	18	1066	23	mask.bmp	blankscreen.bmp	wmd2.bmp	blankscreen.bmp	square.bmp
999914	real_a	real_bottomright_diff_a	19	934	23	mask.bmp	blankscreen.bmp	wmd1.bmp	blankscreen.bmp	square.bmp
999914	real_a	real_topright_diff_a	20	647	18	mask.bmp	blankscreen.bmp	wfd2.bmp	blankscreen.bmp	circle.bmp
999914	real_b	real_topleft_same_b	1	616	18	mask.bmp	blankscreen.bmp	wmd9.bmp	blankscreen.bmp	circle.bmp
999914	real_b	real_bottomleft_same_b	2	558	18	mask.bmp	blankscreen.bmp	wfd9.bmp	blankscreen.bmp	circle.bmp
999914	real_b	real_bottomright_diff_b	3	839	23	mask.bmp	blankscreen.bmp	wmd7.bmp	blankscreen.bmp	square.bmp
999914	real_b	real_topleft_diff_b	4	932	18	mask.bmp	blankscreen.bmp	wfd7.bmp	blankscreen.bmp	circle.bmp
999914	real_b	real_topleft_diff_b	5	694	18	mask.bmp	blankscreen.bmp	wmn6.bmp	blankscreen.bmp	circle.bmp
999914	real_b	real_topleft_diff_b	6	705	18	mask.bmp	blankscreen.bmp	wmd8.bmp	blankscreen.bmp	circle.bmp
999914	real_b	real_bottomleft_diff_b	7	699	18	mask.bmp	blankscreen.bmp	wmd6.bmp	blankscreen.bmp	circle.bmp
999914	real_b	real_bottomright_same_b	8	550	18	mask.bmp	blankscreen.bmp	wfn10.bmp	blankscreen.bmp	circle.bmp
999914	real_b	real_topright_diff_b	9	767	23	mask.bmp	blankscreen.bmp	wfn6.bmp	blankscreen.bmp	square.bmp
999914	real_b	real_topright_same_b	10	646	23	mask.bmp	blankscreen.bmp	wmn10.bmp	blankscreen.bmp	square.bmp
999914	real_b	real_bottomleft_diff_b	11	876	23	mask.bmp	blankscreen.bmp	wfn7.bmp	blankscreen.bmp	square.bmp
999914	real_b	real_bottomleft_same_b	12	591	23	mask.bmp	blankscreen.bmp	wmd10.bmp	blankscreen.bmp	square.bmp
999914	real_b	real_topleft_same_b	13	615	18	mask.bmp	blankscreen.bmp	wmn9.bmp	blankscreen.bmp	circle.bmp
999914	real_b	real_bottomright_diff_b	14	917	18	mask.bmp	blankscreen.bmp	wfd6.bmp	blankscreen.bmp	circle.bmp
999914	real_b	real_bottomright_same_b	15	703	23	mask.bmp	blankscreen.bmp	wfd10.bmp	blankscreen.bmp	square.bmp
999914	real_b	real_topright_diff_b	16	1233	23	mask.bmp	blankscreen.bmp	wfd8.bmp	blankscreen.bmp	square.bmp
999914	real_b	real_topright_diff_b	17	1166	18	mask.bmp	blankscreen.bmp	wmn7.bmp	blankscreen.bmp	square.bmp
999914	real_b	real_bottomright_diff_b	18	830	18	mask.bmp	blankscreen.bmp	wfn8.bmp	blankscreen.bmp	circle.bmp
999914	real_b	real_bottomleft_diff_b	19	724	18	mask.bmp	blankscreen.bmp	wmn8.bmp	blankscreen.bmp	circle.bmp
999914	real_b	real_topright_same_b	20	1061	23	mask.bmp	blankscreen.bmp	wfn9.bmp	blankscreen.bmp	square.bmp
999914	real_c	real_bottomleft_diff_c	1	1053	18	mask.bmp	blankscreen.bmp	wfd4.bmp	blankscreen.bmp	circle.bmp
999914	real_c	real_topleft_diff_c	2	1050	23	mask.bmp	blankscreen.bmp	wfn4.bmp	blankscreen.bmp	square.bmp
999914	real_c	real_bottomleft_same_c	3	2542	18	mask.bmp	blankscreen.bmp	wfd2.bmp	blankscreen.bmp	circle.bmp
999914	real_c	real_bottomright_diff_c	4	1005	23	mask.bmp	blankscreen.bmp	wmn4.bmp	blankscreen.bmp	circle.bmp
999914	real_c	real_bottomright_diff_c	5	852	23	mask.bmp	blankscreen.bmp	wmd3.bmp	blankscreen.bmp	square.bmp
999914	real_c	real_topright_same_c	6	1480	23	mask.bmp	blankscreen.bmp	wmd1.bmp	blankscreen.bmp	square.bmp
999914	real_c	real_bottomright_same_c	7	1651	23	mask.bmp	blankscreen.bmp	wmd2.bmp	blankscreen.bmp	square.bmp
999914	real_c	real_bottomright_diff_c	8	775	23	mask.bmp	blankscreen.bmp	wfd5.bmp	blankscreen.bmp	square.bmp
999914	real_c	real_topleft_same_c	9	671	23	mask.bmp	blankscreen.bmp	wfd1.bmp	blankscreen.bmp	square.bmp
999914	real_c	real_bottomleft_diff_c	10	755	23	mask.bmp	blankscreen.bmp	wmd5.bmp	blankscreen.bmp	square.bmp
999914	real_c	real_bottomleft_same_c	11	843	18	mask.bmp	blankscreen.bmp	wmn1.bmp	blankscreen.bmp	circle.bmp
999914	real_c	real_topleft_diff_c	12	1400	18	mask.bmp	blankscreen.bmp	wmn5.bmp	blankscreen.bmp	circle.bmp
999914	real_c	real_topright_diff_c	13	1478	18	mask.bmp	blankscreen.bmp	wmd4.bmp	blankscreen.bmp	circle.bmp
999914	real_c	real_topleft_same_c	14	546	18	mask.bmp	blankscreen.bmp	wfn1.bmp	blankscreen.bmp	circle.bmp
999914	real_c	real_topright_diff_c	15	595	18	mask.bmp	blankscreen.bmp	wmn3.bmp	blankscreen.bmp	circle.bmp
999914	real_c	real_topleft_diff_c	16	954	23	mask.bmp	blankscreen.bmp	wfd3.bmp	blankscreen.bmp	square.bmp
999914	real_c	real_bottomleft_diff_c	17	739	23	mask.bmp	blankscreen.bmp	wfn3.bmp	blankscreen.bmp	square.bmp
999914	real_c	real_topright_diff_c	18	764	18	mask.bmp	blankscreen.bmp	wfn5.bmp	blankscreen.bmp	circle.bmp
999914	real_c	real_bottomright_same_c	19	1676	18	mask.bmp	blankscreen.bmp	wmn2.bmp	blankscreen.bmp	circle.bmp
999914	real_c	real_topright_same_c	20	759	23	mask.bmp	blankscreen.bmp	wfn2.bmp	blankscreen.bmp	square.bmp
999914	real_d	real_bottomright_diff_d	1	964	18	mask.bmp	blankscreen.bmp	wfd8.bmp	blankscreen.bmp	circle.bmp
999914	real_d	real_topright_same_d	2	772	18	mask.bmp	blankscreen.bmp	wfd6.bmp	blankscreen.bmp	circle.bmp
999914	real_d	real_topleft_diff_d	3	716	18	mask.bmp	blankscreen.bmp	wmn8.bmp	blankscreen.bmp	circle.bmp
999914	real_d	real_bottomleft_diff_d	4	614	18	mask.bmp	blankscreen.bmp	wmd8.bmp	blankscreen.bmp	circle.bmp
999914	real_d	real_topright_same_d	5	596	18	mask.bmp	blankscreen.bmp	wmd7.bmp	blankscreen.bmp	circle.bmp
999914	real_d	real_bottomright_diff_d	6	1067	18	mask.bmp	blankscreen.bmp	wmn10.bmp	blankscreen.bmp	circle.bmp
999914	real_d	real_topright_diff_d	7	815	18	mask.bmp	blankscreen.bmp	wfn8.bmp	blankscreen.bmp	circle.bmp
999914	real_d	real_bottomright_diff_d	8	686	18	mask.bmp	blankscreen.bmp	wfn9.bmp	blankscreen.bmp	circle.bmp
999914	real_d	real_topleft_diff_d	9	825	23	mask.bmp	blankscreen.bmp	wmd9.bmp	blankscreen.bmp	square.bmp
999914	real_d	real_bottomleft_same_d	10	606	18	mask.bmp	blankscreen.bmp	wmn7.bmp	blankscreen.bmp	circle.bmp
999914	real_d	real_topleft_same_d	11	837	18	mask.bmp	blankscreen.bmp	wmn6.bmp	blankscreen.bmp	circle.bmp
999914	real_d	real_bottomleft_same_d	12	530	18	mask.bmp	blankscreen.bmp	wfn6.bmp	blankscreen.bmp	circle.bmp
999914	real_d	real_topright_diff_d	13	1492	23	mask.bmp	blankscreen.bmp	wmd10.bmp	blankscreen.bmp	square.bmp
999914	real_d	real_topleft_same_d	14	567	18	mask.bmp	blankscreen.bmp	wmd6.bmp	blankscreen.bmp	circle.bmp
999914	real_d	real_topleft_diff_d	15	2079	18	mask.bmp	blankscreen.bmp	wfn10.bmp	blankscreen.bmp	square.bmp
999914	real_d	real_bottomright_same_d	16	673	18	mask.bmp	blankscreen.bmp	wfn7.bmp	blankscreen.bmp	circle.bmp
999914	real_d	real_bottomleft_diff_d	17	629	18	mask.bmp	blankscreen.bmp	wfd10.bmp	blankscreen.bmp	circle.bmp
999914	real_d	real_topright_diff_d	18	635	18	mask.bmp	blankscreen.bmp	wfd9.bmp	blankscreen.bmp	circle.bmp
999914	real_d	real_bottomright_same_d	19	601	23	mask.bmp	blankscreen.bmp	wfd7.bmp	blankscreen.bmp	square.bmp
999914	real_d	real_bottomleft_diff_d	20	951	18	mask.bmp	blankscreen.bmp	wmn9.bmp	blankscreen.bmp	circle.bmp
44	practice	practice_bottomleft_same	1	1121	18	mask.bmp	blankscreen.bmp	practice5.jpg	blankscreen.bmp	circle.bmp
44	practice	practice_topleft_diff	2	571	23	mask.bmp	blankscreen.bmp	practice9.jpg	blankscreen.bmp	square.bmp
44	practice	practice_topleft_same	3	779	23	mask.bmp	blankscreen.bmp	practice2.jpg	blankscreen.bmp	square.bmp
44	practice	practice_bottomright_same	4	547	23	mask.bmp	blankscreen.bmp	practice7.jpg	blankscreen.bmp	square.bmp
44	practice	practice_bottomleft_same	5	404	18	mask.bmp	blankscreen.bmp	practice6.jpg	blankscreen.bmp	circle.bmp
44	practice	practice_topleft_same	6	715	23	mask.bmp	blankscreen.bmp	practice1.jpg	blankscreen.bmp	square.bmp
44	practice	practice_topright_diff	7	613	18	mask.bmp	blankscreen.bmp	practice10.jpg	blankscreen.bmp	circle.bmp
44	practice	practice_topright_same	8	700	23	mask.bmp	blankscreen.bmp	practice3.jpg	blankscreen.bmp	square.bmp
44	practice	practice_bottomleft_diff	9	742	23	mask.bmp	blankscreen.bmp	practice11.jpg	blankscreen.bmp	square.bmp
44	practice	practice_bottomright_same	10	648	23	mask.bmp	blankscreen.bmp	practice8.jpg	blankscreen.bmp	square.bmp
44	practice	practice_topright_same	11	341	23	mask.bmp	blankscreen.bmp	practice4.jpg	blankscreen.bmp	square.bmp
44	practice	practice_bottomright_diff	12	494	18	mask.bmp	blankscreen.bmp	practice12.jpg	blankscreen.bmp	circle.bmp
44	real_a	real_bottomleft_same_a	1	716	23	mask.bmp	blankscreen.bmp	wmd4.bmp	blankscreen.bmp	square.bmp
44	real_a	real_topright_same_a	2	566	18	mask.bmp	blankscreen.bmp	wmn4.bmp	blankscreen.bmp	circle.bmp
44	real_a	real_bottomright_same_a	3	814	23	mask.bmp	blankscreen.bmp	wmn5.bmp	blankscreen.bmp	square.bmp
44	real_a	real_topright_diff_a	4	660	23	mask.bmp	blankscreen.bmp	wmn1.bmp	blankscreen.bmp	square.bmp
44	real_a	real_topleft_diff_a	5	625	23	mask.bmp	blankscreen.bmp	wfd1.bmp	blankscreen.bmp	square.bmp
44	real_a	real_topright_diff_a	6	679	23	mask.bmp	blankscreen.bmp	wmd3.bmp	blankscreen.bmp	square.bmp
44	real_a	real_bottomleft_diff_a	7	507	23	mask.bmp	blankscreen.bmp	wmn2.bmp	blankscreen.bmp	square.bmp
44	real_a	real_topright_diff_a	8	445	18	mask.bmp	blankscreen.bmp	wfd2.bmp	blankscreen.bmp	circle.bmp
44	real_a	real_topleft_diff_a	9	747	23	mask.bmp	blankscreen.bmp	wfn3.bmp	blankscreen.bmp	circle.bmp
44	real_a	real_bottomleft_same_a	10	644	23	mask.bmp	blankscreen.bmp	wfn5.bmp	blankscreen.bmp	square.bmp
44	real_a	real_bottomleft_diff_a	11	465	23	mask.bmp	blankscreen.bmp	wfd3.bmp	blankscreen.bmp	square.bmp
44	real_a	real_topleft_same_a	12	437	18	mask.bmp	blankscreen.bmp	wfd4.bmp	blankscreen.bmp	circle.bmp
44	real_a	real_bottomleft_diff_a	13	707	23	mask.bmp	blankscreen.bmp	wfn1.bmp	blankscreen.bmp	square.bmp
44	real_a	real_topleft_same_a	14	461	23	mask.bmp	blankscreen.bmp	wfn4.bmp	blankscreen.bmp	square.bmp
44	real_a	real_bottomright_diff_a	15	1210	18	mask.bmp	blankscreen.bmp	wmd1.bmp	blankscreen.bmp	circle.bmp
44	real_a	real_bottomright_diff_a	16	592	18	mask.bmp	blankscreen.bmp	wmn3.bmp	blankscreen.bmp	circle.bmp
44	real_a	real_topright_same_a	17	607	23	mask.bmp	blankscreen.bmp	wfd5.bmp	blankscreen.bmp	square.bmp
44	real_a	real_bottomright_same_a	18	926	23	mask.bmp	blankscreen.bmp	wmd5.bmp	blankscreen.bmp	square.bmp
44	real_a	real_topleft_diff_a	19	464	23	mask.bmp	blankscreen.bmp	wmd2.bmp	blankscreen.bmp	square.bmp
44	real_a	real_bottomright_diff_a	20	500	18	mask.bmp	blankscreen.bmp	wfn2.bmp	blankscreen.bmp	circle.bmp
44	real_b	real_topright_diff_b	1	527	23	mask.bmp	blankscreen.bmp	wfn6.bmp	blankscreen.bmp	square.bmp
44	real_b	real_bottomleft_same_b	2	457	23	mask.bmp	blankscreen.bmp	wfd9.bmp	blankscreen.bmp	square.bmp
44	real_b	real_topleft_same_b	3	549	23	mask.bmp	blankscreen.bmp	wmd9.bmp	blankscreen.bmp	circle.bmp
44	real_b	real_bottomright_same_b	4	406	23	mask.bmp	blankscreen.bmp	wfd10.bmp	blankscreen.bmp	square.bmp
44	real_b	real_topright_same_b	5	397	23	mask.bmp	blankscreen.bmp	wmn10.bmp	blankscreen.bmp	square.bmp
44	real_b	real_topleft_diff_b	6	428	18	mask.bmp	blankscreen.bmp	wfd7.bmp	blankscreen.bmp	circle.bmp
44	real_b	real_topleft_diff_b	7	586	23	mask.bmp	blankscreen.bmp	wmn6.bmp	blankscreen.bmp	square.bmp
44	real_b	real_bottomleft_diff_b	8	530	18	mask.bmp	blankscreen.bmp	wmd6.bmp	blankscreen.bmp	circle.bmp
44	real_b	real_bottomleft_same_b	9	468	18	mask.bmp	blankscreen.bmp	wmd10.bmp	blankscreen.bmp	circle.bmp
44	real_b	real_bottomleft_diff_b	10	520	23	mask.bmp	blankscreen.bmp	wmn8.bmp	blankscreen.bmp	square.bmp
44	real_b	real_topright_diff_b	11	674	18	mask.bmp	blankscreen.bmp	wfd8.bmp	blankscreen.bmp	circle.bmp
44	real_b	real_bottomright_diff_b	12	462	23	mask.bmp	blankscreen.bmp	wmd7.bmp	blankscreen.bmp	square.bmp
44	real_b	real_bottomright_diff_b	13	490	23	mask.bmp	blankscreen.bmp	wfd6.bmp	blankscreen.bmp	square.bmp
44	real_b	real_bottomleft_diff_b	14	486	23	mask.bmp	blankscreen.bmp	wfn7.bmp	blankscreen.bmp	square.bmp
44	real_b	real_topleft_diff_b	15	681	23	mask.bmp	blankscreen.bmp	wmd8.bmp	blankscreen.bmp	square.bmp
44	real_b	real_topright_same_b	16	437	18	mask.bmp	blankscreen.bmp	wfn9.bmp	blankscreen.bmp	circle.bmp
44	real_b	real_bottomright_same_b	17	466	23	mask.bmp	blankscreen.bmp	wfn10.bmp	blankscreen.bmp	square.bmp
44	real_b	real_topright_diff_b	18	567	23	mask.bmp	blankscreen.bmp	wmn7.bmp	blankscreen.bmp	square.bmp
44	real_b	real_topleft_same_b	19	583	18	mask.bmp	blankscreen.bmp	wmn9.bmp	blankscreen.bmp	circle.bmp
44	real_b	real_bottomright_diff_b	20	590	23	mask.bmp	blankscreen.bmp	wfn8.bmp	blankscreen.bmp	square.bmp
44	real_c	real_topleft_diff_c	1	576	18	mask.bmp	blankscreen.bmp	wfn4.bmp	blankscreen.bmp	circle.bmp
44	real_c	real_bottomleft_same_c	2	424	23	mask.bmp	blankscreen.bmp	wmn1.bmp	blankscreen.bmp	square.bmp
44	real_c	real_topright_same_c	3	655	23	mask.bmp	blankscreen.bmp	wfn2.bmp	blankscreen.bmp	square.bmp
44	real_c	real_bottomright_diff_c	4	723	23	mask.bmp	blankscreen.bmp	wmn4.bmp	blankscreen.bmp	square.bmp
44	real_c	real_bottomright_diff_c	5	453	18	mask.bmp	blankscreen.bmp	wfd5.bmp	blankscreen.bmp	circle.bmp
44	real_c	real_topright_same_c	6	410	23	mask.bmp	blankscreen.bmp	wmd1.bmp	blankscreen.bmp	square.bmp
44	real_c	real_topleft_diff_c	7	496	23	mask.bmp	blankscreen.bmp	wfd3.bmp	blankscreen.bmp	square.bmp
44	real_c	real_bottomright_same_c	8	548	18	mask.bmp	blankscreen.bmp	wmn2.bmp	blankscreen.bmp	circle.bmp
44	real_c	real_bottomright_diff_c	9	437	23	mask.bmp	blankscreen.bmp	wmd3.bmp	blankscreen.bmp	square.bmp
44	real_c	real_topleft_diff_c	10	587	18	mask.bmp	blankscreen.bmp	wmn5.bmp	blankscreen.bmp	square.bmp
44	real_c	real_topright_diff_c	11	586	18	mask.bmp	blankscreen.bmp	wmn3.bmp	blankscreen.bmp	circle.bmp
44	real_c	real_topright_diff_c	12	569	18	mask.bmp	blankscreen.bmp	wmd4.bmp	blankscreen.bmp	circle.bmp
44	real_c	real_topleft_same_c	13	457	23	mask.bmp	blankscreen.bmp	wfd1.bmp	blankscreen.bmp	square.bmp
44	real_c	real_bottomleft_diff_c	14	566	18	mask.bmp	blankscreen.bmp	wfd4.bmp	blankscreen.bmp	circle.bmp
44	real_c	real_topright_diff_c	15	510	23	mask.bmp	blankscreen.bmp	wfn5.bmp	blankscreen.bmp	square.bmp
44	real_c	real_topleft_same_c	16	601	18	mask.bmp	blankscreen.bmp	wfn1.bmp	blankscreen.bmp	circle.bmp
44	real_c	real_bottomright_same_c	17	503	18	mask.bmp	blankscreen.bmp	wmd2.bmp	blankscreen.bmp	circle.bmp
44	real_c	real_bottomleft_same_c	18	458	23	mask.bmp	blankscreen.bmp	wfd2.bmp	blankscreen.bmp	square.bmp
44	real_c	real_bottomleft_diff_c	19	551	18	mask.bmp	blankscreen.bmp	wmd5.bmp	blankscreen.bmp	circle.bmp
44	real_c	real_bottomleft_diff_c	20	631	18	mask.bmp	blankscreen.bmp	wfn3.bmp	blankscreen.bmp	circle.bmp
44	real_d	real_topleft_same_d	1	552	18	mask.bmp	blankscreen.bmp	wmd6.bmp	blankscreen.bmp	circle.bmp
44	real_d	real_topleft_diff_d	2	472	18	mask.bmp	blankscreen.bmp	wmn8.bmp	blankscreen.bmp	circle.bmp
44	real_d	real_bottomright_same_d	3	445	23	mask.bmp	blankscreen.bmp	wfd7.bmp	blankscreen.bmp	square.bmp
44	real_d	real_bottomright_diff_d	4	770	23	mask.bmp	blankscreen.bmp	wmn10.bmp	blankscreen.bmp	square.bmp
44	real_d	real_topright_same_d	5	426	23	mask.bmp	blankscreen.bmp	wfd6.bmp	blankscreen.bmp	square.bmp
44	real_d	real_topright_diff_d	6	400	18	mask.bmp	blankscreen.bmp	wfd9.bmp	blankscreen.bmp	circle.bmp
44	real_d	real_bottomleft_same_d	7	479	23	mask.bmp	blankscreen.bmp	wfn6.bmp	blankscreen.bmp	square.bmp
44	real_d	real_bottomleft_same_d	8	587	23	mask.bmp	blankscreen.bmp	wmn7.bmp	blankscreen.bmp	square.bmp
44	real_d	real_bottomright_same_d	9	434	23	mask.bmp	blankscreen.bmp	wfn7.bmp	blankscreen.bmp	square.bmp
44	real_d	real_bottomright_diff_d	10	424	23	mask.bmp	blankscreen.bmp	wfd8.bmp	blankscreen.bmp	square.bmp
44	real_d	real_topright_diff_d	11	518	23	mask.bmp	blankscreen.bmp	wfn8.bmp	blankscreen.bmp	square.bmp
44	real_d	real_topleft_diff_d	12	456	23	mask.bmp	blankscreen.bmp	wmd9.bmp	blankscreen.bmp	square.bmp
44	real_d	real_bottomright_diff_d	13	548	18	mask.bmp	blankscreen.bmp	wfn9.bmp	blankscreen.bmp	circle.bmp
44	real_d	real_topleft_diff_d	14	429	23	mask.bmp	blankscreen.bmp	wfn10.bmp	blankscreen.bmp	square.bmp
44	real_d	real_topleft_same_d	15	443	23	mask.bmp	blankscreen.bmp	wmn6.bmp	blankscreen.bmp	square.bmp
44	real_d	real_topright_diff_d	16	577	18	mask.bmp	blankscreen.bmp	wmd10.bmp	blankscreen.bmp	circle.bmp
44	real_d	real_topright_same_d	17	433	23	mask.bmp	blankscreen.bmp	wmd7.bmp	blankscreen.bmp	square.bmp
44	real_d	real_bottomleft_diff_d	18	390	23	mask.bmp	blankscreen.bmp	wmd8.bmp	blankscreen.bmp	square.bmp
44	real_d	real_bottomleft_diff_d	19	454	23	mask.bmp	blankscreen.bmp	wmn9.bmp	blankscreen.bmp	square.bmp
44	real_d	real_bottomleft_diff_d	20	458	18	mask.bmp	blankscreen.bmp	wfd10.bmp	blankscreen.bmp	circle.bmp
50	practice	practice_topright_same	1	772	18	mask.bmp	blankscreen.bmp	practice3.jpg	blankscreen.bmp	circle.bmp
50	practice	practice_topleft_diff	2	1172	18	mask.bmp	blankscreen.bmp	practice9.jpg	blankscreen.bmp	circle.bmp
50	practice	practice_bottomright_same	3	555	18	mask.bmp	blankscreen.bmp	practice7.jpg	blankscreen.bmp	circle.bmp
50	practice	practice_topleft_same	4	556	23	mask.bmp	blankscreen.bmp	practice1.jpg	blankscreen.bmp	square.bmp
50	practice	practice_bottomright_diff	5	93	23	mask.bmp	blankscreen.bmp	practice12.jpg	blankscreen.bmp	circle.bmp
50	practice	practice_bottomright_same	6	793	23	mask.bmp	blankscreen.bmp	practice8.jpg	blankscreen.bmp	square.bmp
50	practice	practice_topleft_same	7	608	23	mask.bmp	blankscreen.bmp	practice2.jpg	blankscreen.bmp	square.bmp
50	practice	practice_topright_diff	8	1006	23	mask.bmp	blankscreen.bmp	practice10.jpg	blankscreen.bmp	square.bmp
50	practice	practice_topright_same	9	581	23	mask.bmp	blankscreen.bmp	practice4.jpg	blankscreen.bmp	square.bmp
50	practice	practice_bottomleft_diff	10	725	18	mask.bmp	blankscreen.bmp	practice11.jpg	blankscreen.bmp	circle.bmp
50	practice	practice_bottomleft_same	11	542	18	mask.bmp	blankscreen.bmp	practice6.jpg	blankscreen.bmp	circle.bmp
50	practice	practice_bottomleft_same	12	664	23	mask.bmp	blankscreen.bmp	practice5.jpg	blankscreen.bmp	square.bmp
50	real_a	real_topright_same_a	1	753	23	mask.bmp	blankscreen.bmp	wfd5.bmp	blankscreen.bmp	square.bmp
50	real_a	real_topright_same_a	2	625	23	mask.bmp	blankscreen.bmp	wmn4.bmp	blankscreen.bmp	square.bmp
50	real_a	real_topleft_diff_a	3	903	18	mask.bmp	blankscreen.bmp	wfd1.bmp	blankscreen.bmp	circle.bmp
50	real_a	real_bottomright_diff_a	4	690	18	mask.bmp	blankscreen.bmp	wmn3.bmp	blankscreen.bmp	circle.bmp
50	real_a	real_bottomright_diff_a	5	677	23	mask.bmp	blankscreen.bmp	wfn2.bmp	blankscreen.bmp	square.bmp
50	real_a	real_bottomleft_same_a	6	1257	18	mask.bmp	blankscreen.bmp	wfn5.bmp	blankscreen.bmp	circle.bmp
50	real_a	real_bottomright_diff_a	7	717	23	mask.bmp	blankscreen.bmp	wmd1.bmp	blankscreen.bmp	square.bmp
50	real_a	real_bottomleft_diff_a	8	935	18	mask.bmp	blankscreen.bmp	wfd3.bmp	blankscreen.bmp	circle.bmp
50	real_a	real_bottomright_same_a	9	528	23	mask.bmp	blankscreen.bmp	wmn5.bmp	blankscreen.bmp	square.bmp
50	real_a	real_bottomleft_same_a	10	1322	18	mask.bmp	blankscreen.bmp	wmd4.bmp	blankscreen.bmp	circle.bmp
50	real_a	real_topright_diff_a	11	787	23	mask.bmp	blankscreen.bmp	wfd2.bmp	blankscreen.bmp	square.bmp
50	real_a	real_topleft_same_a	12	858	18	mask.bmp	blankscreen.bmp	wfd4.bmp	blankscreen.bmp	circle.bmp
50	real_a	real_bottomleft_diff_a	13	839	18	mask.bmp	blankscreen.bmp	wfn1.bmp	blankscreen.bmp	circle.bmp
50	real_a	real_topleft_same_a	14	612	18	mask.bmp	blankscreen.bmp	wfn4.bmp	blankscreen.bmp	circle.bmp
50	real_a	real_bottomleft_diff_a	15	586	23	mask.bmp	blankscreen.bmp	wmn2.bmp	blankscreen.bmp	square.bmp
50	real_a	real_topleft_diff_a	16	754	23	mask.bmp	blankscreen.bmp	wfn3.bmp	blankscreen.bmp	square.bmp
50	real_a	real_topright_diff_a	17	762	23	mask.bmp	blankscreen.bmp	wmn1.bmp	blankscreen.bmp	square.bmp
50	real_a	real_topright_diff_a	18	778	18	mask.bmp	blankscreen.bmp	wmd3.bmp	blankscreen.bmp	circle.bmp
50	real_a	real_topleft_diff_a	19	706	23	mask.bmp	blankscreen.bmp	wmd2.bmp	blankscreen.bmp	square.bmp
50	real_a	real_bottomright_same_a	20	629	18	mask.bmp	blankscreen.bmp	wmd5.bmp	blankscreen.bmp	circle.bmp
50	real_b	real_topleft_diff_b	1	653	23	mask.bmp	blankscreen.bmp	wmn6.bmp	blankscreen.bmp	square.bmp
50	real_b	real_bottomleft_diff_b	2	418	23	mask.bmp	blankscreen.bmp	wfn7.bmp	blankscreen.bmp	square.bmp
50	real_b	real_topright_diff_b	3	648	18	mask.bmp	blankscreen.bmp	wfd8.bmp	blankscreen.bmp	circle.bmp
50	real_b	real_topright_diff_b	4	701	23	mask.bmp	blankscreen.bmp	wfn6.bmp	blankscreen.bmp	square.bmp
50	real_b	real_bottomright_same_b	5	544	23	mask.bmp	blankscreen.bmp	wfn10.bmp	blankscreen.bmp	square.bmp
50	real_b	real_topright_same_b	6	609	18	mask.bmp	blankscreen.bmp	wfn9.bmp	blankscreen.bmp	circle.bmp
50	real_b	real_topleft_diff_b	7	888	18	mask.bmp	blankscreen.bmp	wfd7.bmp	blankscreen.bmp	circle.bmp
50	real_b	real_bottomright_same_b	8	627	23	mask.bmp	blankscreen.bmp	wfd10.bmp	blankscreen.bmp	square.bmp
50	real_b	real_bottomright_diff_b	9	641	18	mask.bmp	blankscreen.bmp	wmd7.bmp	blankscreen.bmp	circle.bmp
50	real_b	real_bottomright_diff_b	10	782	23	mask.bmp	blankscreen.bmp	wfd6.bmp	blankscreen.bmp	square.bmp
50	real_b	real_bottomleft_same_b	11	621	23	mask.bmp	blankscreen.bmp	wfd9.bmp	blankscreen.bmp	square.bmp
50	real_b	real_bottomright_diff_b	12	771	18	mask.bmp	blankscreen.bmp	wfn8.bmp	blankscreen.bmp	circle.bmp
50	real_b	real_topright_diff_b	13	739	18	mask.bmp	blankscreen.bmp	wmn7.bmp	blankscreen.bmp	circle.bmp
50	real_b	real_bottomleft_same_b	14	748	18	mask.bmp	blankscreen.bmp	wmd10.bmp	blankscreen.bmp	circle.bmp
50	real_b	real_topleft_diff_b	15	533	18	mask.bmp	blankscreen.bmp	wmd8.bmp	blankscreen.bmp	circle.bmp
50	real_b	real_bottomleft_diff_b	16	678	18	mask.bmp	blankscreen.bmp	wmn8.bmp	blankscreen.bmp	circle.bmp
50	real_b	real_bottomleft_diff_b	17	714	18	mask.bmp	blankscreen.bmp	wmd6.bmp	blankscreen.bmp	circle.bmp
50	real_b	real_topleft_same_b	18	708	18	mask.bmp	blankscreen.bmp	wmd9.bmp	blankscreen.bmp	circle.bmp
50	real_b	real_topright_same_b	19	591	23	mask.bmp	blankscreen.bmp	wmn10.bmp	blankscreen.bmp	square.bmp
50	real_b	real_topleft_same_b	20	734	23	mask.bmp	blankscreen.bmp	wmn9.bmp	blankscreen.bmp	square.bmp
50	real_c	real_bottomright_diff_c	1	643	18	mask.bmp	blankscreen.bmp	wfd5.bmp	blankscreen.bmp	circle.bmp
50	real_c	real_bottomleft_same_c	2	576	23	mask.bmp	blankscreen.bmp	wfd2.bmp	blankscreen.bmp	square.bmp
50	real_c	real_bottomright_diff_c	3	752	18	mask.bmp	blankscreen.bmp	wmn4.bmp	blankscreen.bmp	circle.bmp
50	real_c	real_topright_diff_c	4	625	18	mask.bmp	blankscreen.bmp	wmd4.bmp	blankscreen.bmp	circle.bmp
50	real_c	real_topleft_diff_c	5	831	18	mask.bmp	blankscreen.bmp	wfn4.bmp	blankscreen.bmp	circle.bmp
50	real_c	real_bottomleft_diff_c	6	596	23	mask.bmp	blankscreen.bmp	wfd4.bmp	blankscreen.bmp	square.bmp
50	real_c	real_topright_diff_c	7	780	23	mask.bmp	blankscreen.bmp	wmn3.bmp	blankscreen.bmp	square.bmp
50	real_c	real_topleft_diff_c	8	444	23	mask.bmp	blankscreen.bmp	wfd3.bmp	blankscreen.bmp	square.bmp
50	real_c	real_topleft_same_c	9	497	18	mask.bmp	blankscreen.bmp	wfn1.bmp	blankscreen.bmp	circle.bmp
50	real_c	real_topright_same_c	10	524	18	mask.bmp	blankscreen.bmp	wmd1.bmp	blankscreen.bmp	circle.bmp
50	real_c	real_bottomright_diff_c	11	686	18	mask.bmp	blankscreen.bmp	wmd3.bmp	blankscreen.bmp	circle.bmp
50	real_c	real_bottomleft_diff_c	12	674	23	mask.bmp	blankscreen.bmp	wfn3.bmp	blankscreen.bmp	square.bmp
50	real_c	real_topleft_diff_c	13	678	18	mask.bmp	blankscreen.bmp	wmn5.bmp	blankscreen.bmp	circle.bmp
50	real_c	real_topleft_same_c	14	641	23	mask.bmp	blankscreen.bmp	wfd1.bmp	blankscreen.bmp	square.bmp
50	real_c	real_bottomright_same_c	15	791	18	mask.bmp	blankscreen.bmp	wmn2.bmp	blankscreen.bmp	circle.bmp
50	real_c	real_bottomleft_diff_c	16	790	18	mask.bmp	blankscreen.bmp	wmd5.bmp	blankscreen.bmp	circle.bmp
50	real_c	real_bottomleft_same_c	17	661	18	mask.bmp	blankscreen.bmp	wmn1.bmp	blankscreen.bmp	circle.bmp
50	real_c	real_topright_same_c	18	449	18	mask.bmp	blankscreen.bmp	wfn2.bmp	blankscreen.bmp	circle.bmp
50	real_c	real_topright_diff_c	19	678	23	mask.bmp	blankscreen.bmp	wfn5.bmp	blankscreen.bmp	square.bmp
50	real_c	real_bottomright_same_c	20	674	23	mask.bmp	blankscreen.bmp	wmd2.bmp	blankscreen.bmp	square.bmp
50	real_d	real_topleft_diff_d	1	639	18	mask.bmp	blankscreen.bmp	wmn8.bmp	blankscreen.bmp	circle.bmp
50	real_d	real_bottomleft_diff_d	2	756	18	mask.bmp	blankscreen.bmp	wmd8.bmp	blankscreen.bmp	circle.bmp
50	real_d	real_topleft_same_d	3	677	18	mask.bmp	blankscreen.bmp	wmn6.bmp	blankscreen.bmp	circle.bmp
50	real_d	real_topright_diff_d	4	664	23	mask.bmp	blankscreen.bmp	wfn8.bmp	blankscreen.bmp	square.bmp
50	real_d	real_topleft_diff_d	5	693	18	mask.bmp	blankscreen.bmp	wfn10.bmp	blankscreen.bmp	circle.bmp
50	real_d	real_topright_diff_d	6	584	23	mask.bmp	blankscreen.bmp	wmd10.bmp	blankscreen.bmp	square.bmp
50	real_d	real_bottomleft_same_d	7	783	18	mask.bmp	blankscreen.bmp	wfn6.bmp	blankscreen.bmp	circle.bmp
50	real_d	real_bottomright_diff_d	8	663	23	mask.bmp	blankscreen.bmp	wfn9.bmp	blankscreen.bmp	square.bmp
50	real_d	real_topleft_same_d	9	603	18	mask.bmp	blankscreen.bmp	wmd6.bmp	blankscreen.bmp	circle.bmp
50	real_d	real_bottomleft_diff_d	10	618	18	mask.bmp	blankscreen.bmp	wfd10.bmp	blankscreen.bmp	circle.bmp
50	real_d	real_topright_same_d	11	536	23	mask.bmp	blankscreen.bmp	wmd7.bmp	blankscreen.bmp	square.bmp
50	real_d	real_topright_same_d	12	713	18	mask.bmp	blankscreen.bmp	wfd6.bmp	blankscreen.bmp	circle.bmp
50	real_d	real_bottomright_diff_d	13	596	18	mask.bmp	blankscreen.bmp	wmn10.bmp	blankscreen.bmp	circle.bmp
50	real_d	real_bottomright_same_d	14	627	23	mask.bmp	blankscreen.bmp	wfn7.bmp	blankscreen.bmp	square.bmp
50	real_d	real_bottomleft_diff_d	15	561	23	mask.bmp	blankscreen.bmp	wmn9.bmp	blankscreen.bmp	square.bmp
50	real_d	real_topleft_diff_d	16	626	18	mask.bmp	blankscreen.bmp	wmd9.bmp	blankscreen.bmp	circle.bmp
50	real_d	real_bottomright_same_d	17	623	18	mask.bmp	blankscreen.bmp	wfd7.bmp	blankscreen.bmp	circle.bmp
50	real_d	real_topright_diff_d	18	901	18	mask.bmp	blankscreen.bmp	wfd9.bmp	blankscreen.bmp	circle.bmp
50	real_d	real_bottomright_diff_d	19	720	18	mask.bmp	blankscreen.bmp	wfd8.bmp	blankscreen.bmp	circle.bmp
50	real_d	real_bottomleft_same_d	20	482	18	mask.bmp	blankscreen.bmp	wmn7.bmp	blankscreen.bmp	circle.bmp
58	practice	practice_topright_diff	1	1023	18	mask.bmp	blankscreen.bmp	practice10.jpg	blankscreen.bmp	circle.bmp
58	practice	practice_topright_same	2	788	23	mask.bmp	blankscreen.bmp	practice3.jpg	blankscreen.bmp	square.bmp
58	practice	practice_bottomleft_same	3	1147	18	mask.bmp	blankscreen.bmp	practice6.jpg	blankscreen.bmp	circle.bmp
58	practice	practice_bottomright_same	4	588	18	mask.bmp	blankscreen.bmp	practice8.jpg	blankscreen.bmp	circle.bmp
58	practice	practice_bottomleft_same	5	828	23	mask.bmp	blankscreen.bmp	practice5.jpg	blankscreen.bmp	square.bmp
58	practice	practice_bottomright_same	6	753	23	mask.bmp	blankscreen.bmp	practice7.jpg	blankscreen.bmp	square.bmp
58	practice	practice_topleft_same	7	690	23	mask.bmp	blankscreen.bmp	practice1.jpg	blankscreen.bmp	square.bmp
58	practice	practice_topleft_same	8	613	18	mask.bmp	blankscreen.bmp	practice2.jpg	blankscreen.bmp	circle.bmp
58	practice	practice_bottomleft_diff	9	892	18	mask.bmp	blankscreen.bmp	practice11.jpg	blankscreen.bmp	circle.bmp
58	practice	practice_topright_same	10	783	23	mask.bmp	blankscreen.bmp	practice4.jpg	blankscreen.bmp	square.bmp
58	practice	practice_bottomright_diff	11	774	18	mask.bmp	blankscreen.bmp	practice12.jpg	blankscreen.bmp	circle.bmp
58	practice	practice_topleft_diff	12	742	18	mask.bmp	blankscreen.bmp	practice9.jpg	blankscreen.bmp	circle.bmp
58	real_a	real_topleft_diff_a	1	1026	18	mask.bmp	blankscreen.bmp	wfn3.bmp	blankscreen.bmp	circle.bmp
58	real_a	real_bottomright_diff_a	2	1223	23	mask.bmp	blankscreen.bmp	wmd1.bmp	blankscreen.bmp	square.bmp
58	real_a	real_topleft_same_a	3	893	18	mask.bmp	blankscreen.bmp	wfn4.bmp	blankscreen.bmp	circle.bmp
58	real_a	real_bottomleft_diff_a	4	880	18	mask.bmp	blankscreen.bmp	wmn2.bmp	blankscreen.bmp	circle.bmp
58	real_a	real_bottomleft_diff_a	5	1012	23	mask.bmp	blankscreen.bmp	wfd3.bmp	blankscreen.bmp	square.bmp
58	real_a	real_bottomright_diff_a	6	866	18	mask.bmp	blankscreen.bmp	wmn3.bmp	blankscreen.bmp	circle.bmp
58	real_a	real_topleft_same_a	7	950	18	mask.bmp	blankscreen.bmp	wfd4.bmp	blankscreen.bmp	circle.bmp
58	real_a	real_bottomright_diff_a	8	990	23	mask.bmp	blankscreen.bmp	wfn2.bmp	blankscreen.bmp	square.bmp
58	real_a	real_bottomright_same_a	9	1053	18	mask.bmp	blankscreen.bmp	wmn5.bmp	blankscreen.bmp	circle.bmp
58	real_a	real_bottomleft_same_a	10	801	18	mask.bmp	blankscreen.bmp	wfn5.bmp	blankscreen.bmp	circle.bmp
58	real_a	real_topleft_diff_a	11	856	23	mask.bmp	blankscreen.bmp	wmd2.bmp	blankscreen.bmp	square.bmp
58	real_a	real_topright_diff_a	12	796	23	mask.bmp	blankscreen.bmp	wmn1.bmp	blankscreen.bmp	square.bmp
58	real_a	real_topleft_diff_a	13	787	23	mask.bmp	blankscreen.bmp	wfd1.bmp	blankscreen.bmp	square.bmp
58	real_a	real_topright_diff_a	14	818	23	mask.bmp	blankscreen.bmp	wfd2.bmp	blankscreen.bmp	square.bmp
58	real_a	real_topright_same_a	15	744	18	mask.bmp	blankscreen.bmp	wmn4.bmp	blankscreen.bmp	circle.bmp
58	real_a	real_topright_same_a	16	753	18	mask.bmp	blankscreen.bmp	wfd5.bmp	blankscreen.bmp	circle.bmp
58	real_a	real_bottomleft_diff_a	17	802	23	mask.bmp	blankscreen.bmp	wfn1.bmp	blankscreen.bmp	square.bmp
58	real_a	real_bottomleft_same_a	18	544	23	mask.bmp	blankscreen.bmp	wmd4.bmp	blankscreen.bmp	square.bmp
58	real_a	real_topright_diff_a	19	625	23	mask.bmp	blankscreen.bmp	wmd3.bmp	blankscreen.bmp	square.bmp
58	real_a	real_bottomright_same_a	20	663	18	mask.bmp	blankscreen.bmp	wmd5.bmp	blankscreen.bmp	circle.bmp
58	real_b	real_topleft_diff_b	1	542	23	mask.bmp	blankscreen.bmp	wfd7.bmp	blankscreen.bmp	square.bmp
58	real_b	real_bottomright_diff_b	2	976	23	mask.bmp	blankscreen.bmp	wmd7.bmp	blankscreen.bmp	square.bmp
58	real_b	real_topright_diff_b	3	1008	23	mask.bmp	blankscreen.bmp	wmn7.bmp	blankscreen.bmp	square.bmp
58	real_b	real_topleft_same_b	4	710	23	mask.bmp	blankscreen.bmp	wmn9.bmp	blankscreen.bmp	square.bmp
58	real_b	real_bottomright_diff_b	5	936	18	mask.bmp	blankscreen.bmp	wfn8.bmp	blankscreen.bmp	circle.bmp
58	real_b	real_topright_same_b	6	601	18	mask.bmp	blankscreen.bmp	wmn10.bmp	blankscreen.bmp	circle.bmp
58	real_b	real_bottomleft_diff_b	7	632	18	mask.bmp	blankscreen.bmp	wfn7.bmp	blankscreen.bmp	circle.bmp
58	real_b	real_topright_diff_b	8	622	18	mask.bmp	blankscreen.bmp	wfn6.bmp	blankscreen.bmp	circle.bmp
58	real_b	real_topleft_diff_b	9	908	18	mask.bmp	blankscreen.bmp	wmn6.bmp	blankscreen.bmp	circle.bmp
58	real_b	real_topright_diff_b	10	510	23	mask.bmp	blankscreen.bmp	wfd8.bmp	blankscreen.bmp	square.bmp
58	real_b	real_bottomright_diff_b	11	649	18	mask.bmp	blankscreen.bmp	wfd6.bmp	blankscreen.bmp	circle.bmp
58	real_b	real_bottomleft_same_b	12	758	23	mask.bmp	blankscreen.bmp	wmd10.bmp	blankscreen.bmp	square.bmp
58	real_b	real_bottomright_same_b	13	750	23	mask.bmp	blankscreen.bmp	wfd10.bmp	blankscreen.bmp	square.bmp
58	real_b	real_topleft_diff_b	14	902	18	mask.bmp	blankscreen.bmp	wmd8.bmp	blankscreen.bmp	circle.bmp
58	real_b	real_bottomleft_same_b	15	681	18	mask.bmp	blankscreen.bmp	wfd9.bmp	blankscreen.bmp	circle.bmp
58	real_b	real_bottomleft_diff_b	16	621	23	mask.bmp	blankscreen.bmp	wmn8.bmp	blankscreen.bmp	square.bmp
58	real_b	real_topright_same_b	17	675	18	mask.bmp	blankscreen.bmp	wfn9.bmp	blankscreen.bmp	circle.bmp
58	real_b	real_topleft_same_b	18	535	18	mask.bmp	blankscreen.bmp	wmd9.bmp	blankscreen.bmp	circle.bmp
58	real_b	real_bottomleft_diff_b	19	624	23	mask.bmp	blankscreen.bmp	wmd6.bmp	blankscreen.bmp	square.bmp
58	real_b	real_bottomright_same_b	20	838	23	mask.bmp	blankscreen.bmp	wfn10.bmp	blankscreen.bmp	square.bmp
58	real_c	real_topleft_same_c	1	640	23	mask.bmp	blankscreen.bmp	wfd1.bmp	blankscreen.bmp	square.bmp
58	real_c	real_bottomleft_diff_c	2	821	23	mask.bmp	blankscreen.bmp	wfn3.bmp	blankscreen.bmp	square.bmp
58	real_c	real_topleft_diff_c	3	779	18	mask.bmp	blankscreen.bmp	wfn4.bmp	blankscreen.bmp	circle.bmp
58	real_c	real_topleft_diff_c	4	634	23	mask.bmp	blankscreen.bmp	wmn5.bmp	blankscreen.bmp	square.bmp
58	real_c	real_bottomright_diff_c	5	680	23	mask.bmp	blankscreen.bmp	wmn4.bmp	blankscreen.bmp	square.bmp
58	real_c	real_bottomright_diff_c	6	788	18	mask.bmp	blankscreen.bmp	wmd3.bmp	blankscreen.bmp	circle.bmp
58	real_c	real_topright_diff_c	7	611	23	mask.bmp	blankscreen.bmp	wmd4.bmp	blankscreen.bmp	square.bmp
58	real_c	real_topleft_diff_c	8	481	23	mask.bmp	blankscreen.bmp	wfd3.bmp	blankscreen.bmp	square.bmp
58	real_c	real_topright_diff_c	9	645	18	mask.bmp	blankscreen.bmp	wfn5.bmp	blankscreen.bmp	circle.bmp
58	real_c	real_bottomright_same_c	10	755	18	mask.bmp	blankscreen.bmp	wmn2.bmp	blankscreen.bmp	circle.bmp
58	real_c	real_topright_same_c	11	651	18	mask.bmp	blankscreen.bmp	wfn2.bmp	blankscreen.bmp	circle.bmp
58	real_c	real_topleft_same_c	12	592	23	mask.bmp	blankscreen.bmp	wfn1.bmp	blankscreen.bmp	square.bmp
58	real_c	real_topright_diff_c	13	679	18	mask.bmp	blankscreen.bmp	wmn3.bmp	blankscreen.bmp	circle.bmp
58	real_c	real_bottomleft_diff_c	14	907	18	mask.bmp	blankscreen.bmp	wmd5.bmp	blankscreen.bmp	circle.bmp
58	real_c	real_bottomleft_diff_c	15	965	23	mask.bmp	blankscreen.bmp	wfd4.bmp	blankscreen.bmp	square.bmp
58	real_c	real_bottomright_diff_c	16	846	23	mask.bmp	blankscreen.bmp	wfd5.bmp	blankscreen.bmp	square.bmp
58	real_c	real_bottomright_same_c	17	746	18	mask.bmp	blankscreen.bmp	wmd2.bmp	blankscreen.bmp	circle.bmp
58	real_c	real_bottomleft_same_c	18	828	23	mask.bmp	blankscreen.bmp	wmn1.bmp	blankscreen.bmp	square.bmp
58	real_c	real_topright_same_c	19	793	18	mask.bmp	blankscreen.bmp	wmd1.bmp	blankscreen.bmp	circle.bmp
58	real_c	real_bottomleft_same_c	20	617	18	mask.bmp	blankscreen.bmp	wfd2.bmp	blankscreen.bmp	circle.bmp
58	real_d	real_topright_diff_d	1	650	18	mask.bmp	blankscreen.bmp	wfn8.bmp	blankscreen.bmp	circle.bmp
58	real_d	real_topleft_same_d	2	558	23	mask.bmp	blankscreen.bmp	wmd6.bmp	blankscreen.bmp	square.bmp
58	real_d	real_topright_same_d	3	631	23	mask.bmp	blankscreen.bmp	wmd7.bmp	blankscreen.bmp	square.bmp
58	real_d	real_topleft_diff_d	4	973	23	mask.bmp	blankscreen.bmp	wfn10.bmp	blankscreen.bmp	square.bmp
58	real_d	real_topleft_diff_d	5	621	18	mask.bmp	blankscreen.bmp	wmn8.bmp	blankscreen.bmp	circle.bmp
58	real_d	real_bottomleft_same_d	6	723	23	mask.bmp	blankscreen.bmp	wmn7.bmp	blankscreen.bmp	square.bmp
58	real_d	real_bottomright_diff_d	7	733	18	mask.bmp	blankscreen.bmp	wfd8.bmp	blankscreen.bmp	circle.bmp
58	real_d	real_bottomright_diff_d	8	630	23	mask.bmp	blankscreen.bmp	wmn10.bmp	blankscreen.bmp	square.bmp
58	real_d	real_bottomright_diff_d	9	740	23	mask.bmp	blankscreen.bmp	wfn9.bmp	blankscreen.bmp	square.bmp
58	real_d	real_topright_diff_d	10	669	18	mask.bmp	blankscreen.bmp	wmd10.bmp	blankscreen.bmp	circle.bmp
58	real_d	real_bottomleft_diff_d	11	642	23	mask.bmp	blankscreen.bmp	wfd10.bmp	blankscreen.bmp	square.bmp
58	real_d	real_bottomright_same_d	12	623	23	mask.bmp	blankscreen.bmp	wfd7.bmp	blankscreen.bmp	square.bmp
58	real_d	real_bottomleft_diff_d	13	725	18	mask.bmp	blankscreen.bmp	wmd8.bmp	blankscreen.bmp	circle.bmp
58	real_d	real_topright_diff_d	14	790	18	mask.bmp	blankscreen.bmp	wfd9.bmp	blankscreen.bmp	circle.bmp
58	real_d	real_bottomright_same_d	15	662	23	mask.bmp	blankscreen.bmp	wfn7.bmp	blankscreen.bmp	square.bmp
58	real_d	real_bottomleft_same_d	16	706	23	mask.bmp	blankscreen.bmp	wfn6.bmp	blankscreen.bmp	square.bmp
58	real_d	real_bottomleft_diff_d	17	677	18	mask.bmp	blankscreen.bmp	wmn9.bmp	blankscreen.bmp	circle.bmp
58	real_d	real_topleft_diff_d	18	720	23	mask.bmp	blankscreen.bmp	wmd9.bmp	blankscreen.bmp	square.bmp
58	real_d	real_topleft_same_d	19	650	23	mask.bmp	blankscreen.bmp	wmn6.bmp	blankscreen.bmp	square.bmp
58	real_d	real_topright_same_d	20	703	18	mask.bmp	blankscreen.bmp	wfd6.bmp	blankscreen.bmp	circle.bmp
70	practice	practice_bottomleft_same	1	766	23	mask.bmp	blankscreen.bmp	practice6.jpg	blankscreen.bmp	square.bmp
70	practice	practice_bottomleft_same	2	582	23	mask.bmp	blankscreen.bmp	practice5.jpg	blankscreen.bmp	square.bmp
70	practice	practice_bottomleft_diff	3	574	18	mask.bmp	blankscreen.bmp	practice11.jpg	blankscreen.bmp	circle.bmp
70	practice	practice_bottomright_same	4	574	18	mask.bmp	blankscreen.bmp	practice7.jpg	blankscreen.bmp	circle.bmp
70	practice	practice_topleft_same	5	462	18	mask.bmp	blankscreen.bmp	practice2.jpg	blankscreen.bmp	circle.bmp
70	practice	practice_topleft_diff	6	418	18	mask.bmp	blankscreen.bmp	practice9.jpg	blankscreen.bmp	circle.bmp
70	practice	practice_topright_same	7	441	18	mask.bmp	blankscreen.bmp	practice3.jpg	blankscreen.bmp	circle.bmp
70	practice	practice_bottomright_same	8	406	18	mask.bmp	blankscreen.bmp	practice8.jpg	blankscreen.bmp	circle.bmp
70	practice	practice_topright_diff	9	693	23	mask.bmp	blankscreen.bmp	practice10.jpg	blankscreen.bmp	square.bmp
70	practice	practice_topright_same	10	568	23	mask.bmp	blankscreen.bmp	practice4.jpg	blankscreen.bmp	square.bmp
70	practice	practice_bottomright_diff	11	528	23	mask.bmp	blankscreen.bmp	practice12.jpg	blankscreen.bmp	square.bmp
70	practice	practice_topleft_same	12	418	18	mask.bmp	blankscreen.bmp	practice1.jpg	blankscreen.bmp	circle.bmp
70	real_a	real_topright_diff_a	1	973	23	mask.bmp	blankscreen.bmp	wmd3.bmp	blankscreen.bmp	square.bmp
70	real_a	real_bottomright_same_a	2	533	18	mask.bmp	blankscreen.bmp	wmd5.bmp	blankscreen.bmp	circle.bmp
70	real_a	real_topleft_diff_a	3	437	23	mask.bmp	blankscreen.bmp	wmd2.bmp	blankscreen.bmp	square.bmp
70	real_a	real_bottomleft_same_a	4	419	18	mask.bmp	blankscreen.bmp	wfn5.bmp	blankscreen.bmp	circle.bmp
70	real_a	real_topright_same_a	5	385	23	mask.bmp	blankscreen.bmp	wmn4.bmp	blankscreen.bmp	square.bmp
70	real_a	real_topleft_diff_a	6	416	23	mask.bmp	blankscreen.bmp	wfn3.bmp	blankscreen.bmp	square.bmp
70	real_a	real_topright_diff_a	7	319	18	mask.bmp	blankscreen.bmp	wmn1.bmp	blankscreen.bmp	circle.bmp
70	real_a	real_bottomleft_diff_a	8	369	18	mask.bmp	blankscreen.bmp	wfn1.bmp	blankscreen.bmp	square.bmp
70	real_a	real_bottomleft_diff_a	9	481	23	mask.bmp	blankscreen.bmp	wmn2.bmp	blankscreen.bmp	square.bmp
70	real_a	real_topleft_same_a	10	421	18	mask.bmp	blankscreen.bmp	wfn4.bmp	blankscreen.bmp	circle.bmp
70	real_a	real_topright_diff_a	11	443	23	mask.bmp	blankscreen.bmp	wfd2.bmp	blankscreen.bmp	square.bmp
70	real_a	real_bottomright_diff_a	12	489	23	mask.bmp	blankscreen.bmp	wmd1.bmp	blankscreen.bmp	square.bmp
70	real_a	real_topright_same_a	13	436	18	mask.bmp	blankscreen.bmp	wfd5.bmp	blankscreen.bmp	circle.bmp
70	real_a	real_bottomright_same_a	14	433	23	mask.bmp	blankscreen.bmp	wmn5.bmp	blankscreen.bmp	square.bmp
70	real_a	real_bottomright_diff_a	15	375	18	mask.bmp	blankscreen.bmp	wmn3.bmp	blankscreen.bmp	circle.bmp
70	real_a	real_topleft_same_a	16	431	18	mask.bmp	blankscreen.bmp	wfd4.bmp	blankscreen.bmp	circle.bmp
70	real_a	real_topleft_diff_a	17	829	18	mask.bmp	blankscreen.bmp	wfd1.bmp	blankscreen.bmp	circle.bmp
70	real_a	real_bottomleft_same_a	18	435	23	mask.bmp	blankscreen.bmp	wmd4.bmp	blankscreen.bmp	square.bmp
70	real_a	real_bottomright_diff_a	19	528	23	mask.bmp	blankscreen.bmp	wfn2.bmp	blankscreen.bmp	square.bmp
70	real_a	real_bottomleft_diff_a	20	442	23	mask.bmp	blankscreen.bmp	wfd3.bmp	blankscreen.bmp	square.bmp
70	real_b	real_bottomleft_diff_b	1	461	23	mask.bmp	blankscreen.bmp	wmn8.bmp	blankscreen.bmp	square.bmp
70	real_b	real_topleft_same_b	2	441	23	mask.bmp	blankscreen.bmp	wmd9.bmp	blankscreen.bmp	square.bmp
70	real_b	real_topleft_diff_b	3	391	18	mask.bmp	blankscreen.bmp	wmn6.bmp	blankscreen.bmp	circle.bmp
70	real_b	real_topleft_diff_b	4	446	23	mask.bmp	blankscreen.bmp	wmd8.bmp	blankscreen.bmp	square.bmp
70	real_b	real_bottomright_same_b	5	404	18	mask.bmp	blankscreen.bmp	wfd10.bmp	blankscreen.bmp	circle.bmp
70	real_b	real_topright_diff_b	6	427	18	mask.bmp	blankscreen.bmp	wfn6.bmp	blankscreen.bmp	circle.bmp
70	real_b	real_topright_same_b	7	385	23	mask.bmp	blankscreen.bmp	wmn10.bmp	blankscreen.bmp	square.bmp
70	real_b	real_topleft_same_b	8	328	23	mask.bmp	blankscreen.bmp	wmn9.bmp	blankscreen.bmp	square.bmp
70	real_b	real_bottomleft_diff_b	9	387	18	mask.bmp	blankscreen.bmp	wmd6.bmp	blankscreen.bmp	circle.bmp
70	real_b	real_topright_diff_b	10	498	18	mask.bmp	blankscreen.bmp	wfd8.bmp	blankscreen.bmp	square.bmp
70	real_b	real_bottomleft_diff_b	11	517	23	mask.bmp	blankscreen.bmp	wfn7.bmp	blankscreen.bmp	square.bmp
70	real_b	real_bottomright_diff_b	12	463	18	mask.bmp	blankscreen.bmp	wfn8.bmp	blankscreen.bmp	circle.bmp
70	real_b	real_topright_same_b	13	484	23	mask.bmp	blankscreen.bmp	wfn9.bmp	blankscreen.bmp	square.bmp
70	real_b	real_bottomleft_same_b	14	591	23	mask.bmp	blankscreen.bmp	wfd9.bmp	blankscreen.bmp	square.bmp
70	real_b	real_bottomright_diff_b	15	551	18	mask.bmp	blankscreen.bmp	wmd7.bmp	blankscreen.bmp	circle.bmp
70	real_b	real_bottomright_diff_b	16	663	23	mask.bmp	blankscreen.bmp	wfd6.bmp	blankscreen.bmp	square.bmp
70	real_b	real_bottomright_same_b	17	572	18	mask.bmp	blankscreen.bmp	wfn10.bmp	blankscreen.bmp	circle.bmp
70	real_b	real_topleft_diff_b	18	820	23	mask.bmp	blankscreen.bmp	wfd7.bmp	blankscreen.bmp	square.bmp
70	real_b	real_bottomleft_same_b	19	594	23	mask.bmp	blankscreen.bmp	wmd10.bmp	blankscreen.bmp	square.bmp
70	real_b	real_topright_diff_b	20	465	18	mask.bmp	blankscreen.bmp	wmn7.bmp	blankscreen.bmp	circle.bmp
70	real_c	real_topleft_diff_c	1	331	23	mask.bmp	blankscreen.bmp	wmn5.bmp	blankscreen.bmp	square.bmp
70	real_c	real_topright_diff_c	2	405	18	mask.bmp	blankscreen.bmp	wmn3.bmp	blankscreen.bmp	circle.bmp
70	real_c	real_bottomright_diff_c	3	396	18	mask.bmp	blankscreen.bmp	wfd5.bmp	blankscreen.bmp	circle.bmp
70	real_c	real_bottomright_same_c	4	563	18	mask.bmp	blankscreen.bmp	wmd2.bmp	blankscreen.bmp	circle.bmp
70	real_c	real_bottomright_same_c	5	340	23	mask.bmp	blankscreen.bmp	wmn2.bmp	blankscreen.bmp	square.bmp
70	real_c	real_topleft_same_c	6	445	18	mask.bmp	blankscreen.bmp	wfn1.bmp	blankscreen.bmp	circle.bmp
70	real_c	real_bottomleft_diff_c	7	355	23	mask.bmp	blankscreen.bmp	wfn3.bmp	blankscreen.bmp	square.bmp
70	real_c	real_topleft_diff_c	8	484	23	mask.bmp	blankscreen.bmp	wfd3.bmp	blankscreen.bmp	square.bmp
70	real_c	real_bottomleft_diff_c	9	535	23	mask.bmp	blankscreen.bmp	wmd5.bmp	blankscreen.bmp	square.bmp
70	real_c	real_bottomright_diff_c	10	456	23	mask.bmp	blankscreen.bmp	wmd3.bmp	blankscreen.bmp	square.bmp
70	real_c	real_topright_diff_c	11	333	18	mask.bmp	blankscreen.bmp	wmd4.bmp	blankscreen.bmp	circle.bmp
70	real_c	real_topright_diff_c	12	439	23	mask.bmp	blankscreen.bmp	wfn5.bmp	blankscreen.bmp	circle.bmp
70	real_c	real_bottomleft_same_c	13	508	18	mask.bmp	blankscreen.bmp	wmn1.bmp	blankscreen.bmp	circle.bmp
70	real_c	real_topright_same_c	14	463	18	mask.bmp	blankscreen.bmp	wmd1.bmp	blankscreen.bmp	circle.bmp
70	real_c	real_topleft_diff_c	15	563	18	mask.bmp	blankscreen.bmp	wfn4.bmp	blankscreen.bmp	circle.bmp
70	real_c	real_bottomleft_diff_c	16	500	18	mask.bmp	blankscreen.bmp	wfd4.bmp	blankscreen.bmp	circle.bmp
70	real_c	real_topright_same_c	17	367	23	mask.bmp	blankscreen.bmp	wfn2.bmp	blankscreen.bmp	square.bmp
70	real_c	real_bottomleft_same_c	18	423	23	mask.bmp	blankscreen.bmp	wfd2.bmp	blankscreen.bmp	square.bmp
70	real_c	real_bottomright_diff_c	19	421	18	mask.bmp	blankscreen.bmp	wmn4.bmp	blankscreen.bmp	circle.bmp
70	real_c	real_topleft_same_c	20	515	23	mask.bmp	blankscreen.bmp	wfd1.bmp	blankscreen.bmp	square.bmp
70	real_d	real_bottomright_diff_d	1	446	23	mask.bmp	blankscreen.bmp	wfd8.bmp	blankscreen.bmp	square.bmp
70	real_d	real_bottomleft_diff_d	2	460	18	mask.bmp	blankscreen.bmp	wmn9.bmp	blankscreen.bmp	circle.bmp
70	real_d	real_bottomleft_same_d	3	385	18	mask.bmp	blankscreen.bmp	wfn6.bmp	blankscreen.bmp	circle.bmp
70	real_d	real_topleft_diff_d	4	400	18	mask.bmp	blankscreen.bmp	wmn8.bmp	blankscreen.bmp	circle.bmp
70	real_d	real_bottomleft_diff_d	5	439	18	mask.bmp	blankscreen.bmp	wmd8.bmp	blankscreen.bmp	circle.bmp
70	real_d	real_topleft_same_d	6	348	23	mask.bmp	blankscreen.bmp	wmd6.bmp	blankscreen.bmp	square.bmp
70	real_d	real_topright_diff_d	7	541	18	mask.bmp	blankscreen.bmp	wfn8.bmp	blankscreen.bmp	circle.bmp
70	real_d	real_bottomright_same_d	8	446	23	mask.bmp	blankscreen.bmp	wfd7.bmp	blankscreen.bmp	square.bmp
70	real_d	real_bottomleft_diff_d	9	564	23	mask.bmp	blankscreen.bmp	wfd10.bmp	blankscreen.bmp	square.bmp
70	real_d	real_topleft_diff_d	10	389	18	mask.bmp	blankscreen.bmp	wfn10.bmp	blankscreen.bmp	circle.bmp
70	real_d	real_bottomleft_same_d	11	388	23	mask.bmp	blankscreen.bmp	wmn7.bmp	blankscreen.bmp	square.bmp
70	real_d	real_topright_diff_d	12	515	23	mask.bmp	blankscreen.bmp	wmd10.bmp	blankscreen.bmp	square.bmp
70	real_d	real_topright_same_d	13	486	23	mask.bmp	blankscreen.bmp	wfd6.bmp	blankscreen.bmp	square.bmp
70	real_d	real_topleft_diff_d	14	537	18	mask.bmp	blankscreen.bmp	wmd9.bmp	blankscreen.bmp	square.bmp
70	real_d	real_bottomright_same_d	15	595	23	mask.bmp	blankscreen.bmp	wfn7.bmp	blankscreen.bmp	square.bmp
70	real_d	real_topright_diff_d	16	482	23	mask.bmp	blankscreen.bmp	wfd9.bmp	blankscreen.bmp	square.bmp
70	real_d	real_topright_same_d	17	574	18	mask.bmp	blankscreen.bmp	wmd7.bmp	blankscreen.bmp	circle.bmp
70	real_d	real_bottomright_diff_d	18	446	23	mask.bmp	blankscreen.bmp	wfn9.bmp	blankscreen.bmp	square.bmp
70	real_d	real_bottomright_diff_d	19	499	23	mask.bmp	blankscreen.bmp	wmn10.bmp	blankscreen.bmp	square.bmp
70	real_d	real_topleft_same_d	20	446	18	mask.bmp	blankscreen.bmp	wmn6.bmp	blankscreen.bmp	circle.bmp
75	practice	practice_topright_diff	1	1829	18	mask.bmp	blankscreen.bmp	practice10.jpg	blankscreen.bmp	circle.bmp
75	practice	practice_bottomleft_same	2	602	18	mask.bmp	blankscreen.bmp	practice5.jpg	blankscreen.bmp	circle.bmp
75	practice	practice_bottomright_same	3	529	23	mask.bmp	blankscreen.bmp	practice7.jpg	blankscreen.bmp	square.bmp
75	practice	practice_bottomleft_diff	4	459	23	mask.bmp	blankscreen.bmp	practice11.jpg	blankscreen.bmp	square.bmp
75	practice	practice_bottomright_same	5	879	23	mask.bmp	blankscreen.bmp	practice8.jpg	blankscreen.bmp	square.bmp
75	practice	practice_topleft_same	6	459	18	mask.bmp	blankscreen.bmp	practice2.jpg	blankscreen.bmp	circle.bmp
75	practice	practice_bottomleft_same	7	648	18	mask.bmp	blankscreen.bmp	practice6.jpg	blankscreen.bmp	circle.bmp
75	practice	practice_topleft_same	8	565	18	mask.bmp	blankscreen.bmp	practice1.jpg	blankscreen.bmp	circle.bmp
75	practice	practice_topright_same	9	742	18	mask.bmp	blankscreen.bmp	practice4.jpg	blankscreen.bmp	circle.bmp
75	practice	practice_bottomright_diff	10	559	23	mask.bmp	blankscreen.bmp	practice12.jpg	blankscreen.bmp	square.bmp
75	practice	practice_topright_same	11	520	18	mask.bmp	blankscreen.bmp	practice3.jpg	blankscreen.bmp	circle.bmp
75	practice	practice_topleft_diff	12	466	18	mask.bmp	blankscreen.bmp	practice9.jpg	blankscreen.bmp	circle.bmp
75	real_a	real_topright_same_a	1	856	18	mask.bmp	blankscreen.bmp	wmn4.bmp	blankscreen.bmp	circle.bmp
75	real_a	real_topleft_same_a	2	668	18	mask.bmp	blankscreen.bmp	wfn4.bmp	blankscreen.bmp	circle.bmp
75	real_a	real_topleft_diff_a	3	608	23	mask.bmp	blankscreen.bmp	wmd2.bmp	blankscreen.bmp	square.bmp
75	real_a	real_topright_diff_a	4	735	23	mask.bmp	blankscreen.bmp	wfd2.bmp	blankscreen.bmp	square.bmp
75	real_a	real_bottomleft_diff_a	5	456	18	mask.bmp	blankscreen.bmp	wfn1.bmp	blankscreen.bmp	circle.bmp
75	real_a	real_topright_same_a	6	845	18	mask.bmp	blankscreen.bmp	wfd5.bmp	blankscreen.bmp	circle.bmp
75	real_a	real_bottomright_diff_a	7	570	23	mask.bmp	blankscreen.bmp	wfn2.bmp	blankscreen.bmp	square.bmp
75	real_a	real_topleft_same_a	8	682	23	mask.bmp	blankscreen.bmp	wfd4.bmp	blankscreen.bmp	square.bmp
75	real_a	real_topright_diff_a	9	518	23	mask.bmp	blankscreen.bmp	wmn1.bmp	blankscreen.bmp	square.bmp
75	real_a	real_bottomleft_diff_a	10	792	18	mask.bmp	blankscreen.bmp	wfd3.bmp	blankscreen.bmp	circle.bmp
75	real_a	real_bottomright_same_a	11	815	18	mask.bmp	blankscreen.bmp	wmn5.bmp	blankscreen.bmp	circle.bmp
75	real_a	real_topleft_diff_a	12	589	18	mask.bmp	blankscreen.bmp	wfn3.bmp	blankscreen.bmp	circle.bmp
75	real_a	real_bottomleft_diff_a	13	485	23	mask.bmp	blankscreen.bmp	wmn2.bmp	blankscreen.bmp	square.bmp
75	real_a	real_topleft_diff_a	14	448	23	mask.bmp	blankscreen.bmp	wfd1.bmp	blankscreen.bmp	square.bmp
75	real_a	real_bottomright_diff_a	15	605	18	mask.bmp	blankscreen.bmp	wmd1.bmp	blankscreen.bmp	circle.bmp
75	real_a	real_bottomright_same_a	16	708	23	mask.bmp	blankscreen.bmp	wmd5.bmp	blankscreen.bmp	square.bmp
75	real_a	real_bottomleft_same_a	17	790	23	mask.bmp	blankscreen.bmp	wfn5.bmp	blankscreen.bmp	square.bmp
75	real_a	real_bottomleft_same_a	18	646	23	mask.bmp	blankscreen.bmp	wmd4.bmp	blankscreen.bmp	square.bmp
75	real_a	real_bottomright_diff_a	19	587	23	mask.bmp	blankscreen.bmp	wmn3.bmp	blankscreen.bmp	square.bmp
75	real_a	real_topright_diff_a	20	498	18	mask.bmp	blankscreen.bmp	wmd3.bmp	blankscreen.bmp	circle.bmp
75	real_b	real_topleft_same_b	1	734	23	mask.bmp	blankscreen.bmp	wmn9.bmp	blankscreen.bmp	square.bmp
75	real_b	real_topright_diff_b	2	503	23	mask.bmp	blankscreen.bmp	wfn6.bmp	blankscreen.bmp	square.bmp
75	real_b	real_bottomright_same_b	3	474	23	mask.bmp	blankscreen.bmp	wfn10.bmp	blankscreen.bmp	square.bmp
75	real_b	real_bottomright_diff_b	4	534	18	mask.bmp	blankscreen.bmp	wmd7.bmp	blankscreen.bmp	circle.bmp
75	real_b	real_bottomright_diff_b	5	551	18	mask.bmp	blankscreen.bmp	wfd6.bmp	blankscreen.bmp	circle.bmp
75	real_b	real_bottomleft_same_b	6	520	18	mask.bmp	blankscreen.bmp	wmd10.bmp	blankscreen.bmp	circle.bmp
75	real_b	real_topleft_diff_b	7	490	23	mask.bmp	blankscreen.bmp	wfd7.bmp	blankscreen.bmp	square.bmp
75	real_b	real_topright_same_b	8	509	18	mask.bmp	blankscreen.bmp	wmn10.bmp	blankscreen.bmp	circle.bmp
75	real_b	real_bottomleft_diff_b	9	576	23	mask.bmp	blankscreen.bmp	wfn7.bmp	blankscreen.bmp	square.bmp
75	real_b	real_bottomleft_same_b	10	856	18	mask.bmp	blankscreen.bmp	wfd9.bmp	blankscreen.bmp	circle.bmp
75	real_b	real_topleft_same_b	11	612	23	mask.bmp	blankscreen.bmp	wmd9.bmp	blankscreen.bmp	square.bmp
75	real_b	real_topright_diff_b	12	1051	18	mask.bmp	blankscreen.bmp	wmn7.bmp	blankscreen.bmp	circle.bmp
75	real_b	real_topleft_diff_b	13	632	18	mask.bmp	blankscreen.bmp	wmd8.bmp	blankscreen.bmp	circle.bmp
75	real_b	real_topright_diff_b	14	661	18	mask.bmp	blankscreen.bmp	wfd8.bmp	blankscreen.bmp	circle.bmp
75	real_b	real_bottomright_same_b	15	842	23	mask.bmp	blankscreen.bmp	wfd10.bmp	blankscreen.bmp	square.bmp
75	real_b	real_topright_same_b	16	855	18	mask.bmp	blankscreen.bmp	wfn9.bmp	blankscreen.bmp	circle.bmp
75	real_b	real_bottomleft_diff_b	17	611	23	mask.bmp	blankscreen.bmp	wmn8.bmp	blankscreen.bmp	square.bmp
75	real_b	real_topleft_diff_b	18	890	23	mask.bmp	blankscreen.bmp	wmn6.bmp	blankscreen.bmp	square.bmp
75	real_b	real_bottomright_diff_b	19	565	23	mask.bmp	blankscreen.bmp	wfn8.bmp	blankscreen.bmp	square.bmp
75	real_b	real_bottomleft_diff_b	20	598	23	mask.bmp	blankscreen.bmp	wmd6.bmp	blankscreen.bmp	square.bmp
75	real_c	real_bottomright_diff_c	1	558	23	mask.bmp	blankscreen.bmp	wmd3.bmp	blankscreen.bmp	square.bmp
75	real_c	real_topright_diff_c	2	758	23	mask.bmp	blankscreen.bmp	wfn5.bmp	blankscreen.bmp	square.bmp
75	real_c	real_bottomright_same_c	3	455	18	mask.bmp	blankscreen.bmp	wmn2.bmp	blankscreen.bmp	circle.bmp
75	real_c	real_bottomleft_diff_c	4	620	23	mask.bmp	blankscreen.bmp	wfd4.bmp	blankscreen.bmp	square.bmp
75	real_c	real_topright_diff_c	5	481	23	mask.bmp	blankscreen.bmp	wmn3.bmp	blankscreen.bmp	square.bmp
75	real_c	real_bottomleft_same_c	6	573	23	mask.bmp	blankscreen.bmp	wfd2.bmp	blankscreen.bmp	square.bmp
75	real_c	real_topright_same_c	7	557	23	mask.bmp	blankscreen.bmp	wmd1.bmp	blankscreen.bmp	square.bmp
75	real_c	real_topleft_diff_c	8	366	18	mask.bmp	blankscreen.bmp	wfn4.bmp	blankscreen.bmp	circle.bmp
75	real_c	real_bottomleft_same_c	9	566	23	mask.bmp	blankscreen.bmp	wmn1.bmp	blankscreen.bmp	square.bmp
75	real_c	real_bottomright_same_c	10	862	23	mask.bmp	blankscreen.bmp	wmd2.bmp	blankscreen.bmp	square.bmp
75	real_c	real_topleft_diff_c	11	531	23	mask.bmp	blankscreen.bmp	wfd3.bmp	blankscreen.bmp	square.bmp
75	real_c	real_topleft_same_c	12	573	23	mask.bmp	blankscreen.bmp	wfd1.bmp	blankscreen.bmp	square.bmp
75	real_c	real_topleft_diff_c	13	429	23	mask.bmp	blankscreen.bmp	wmn5.bmp	blankscreen.bmp	square.bmp
75	real_c	real_topright_same_c	14	467	23	mask.bmp	blankscreen.bmp	wfn2.bmp	blankscreen.bmp	square.bmp
75	real_c	real_bottomleft_diff_c	15	631	23	mask.bmp	blankscreen.bmp	wfn3.bmp	blankscreen.bmp	square.bmp
75	real_c	real_topleft_same_c	16	541	18	mask.bmp	blankscreen.bmp	wfn1.bmp	blankscreen.bmp	circle.bmp
75	real_c	real_topright_diff_c	17	454	18	mask.bmp	blankscreen.bmp	wmd4.bmp	blankscreen.bmp	circle.bmp
75	real_c	real_bottomright_diff_c	18	539	18	mask.bmp	blankscreen.bmp	wmn4.bmp	blankscreen.bmp	circle.bmp
75	real_c	real_bottomright_diff_c	19	548	18	mask.bmp	blankscreen.bmp	wfd5.bmp	blankscreen.bmp	circle.bmp
75	real_c	real_bottomleft_diff_c	20	446	23	mask.bmp	blankscreen.bmp	wmd5.bmp	blankscreen.bmp	square.bmp
75	real_d	real_bottomleft_same_d	1	711	23	mask.bmp	blankscreen.bmp	wmn7.bmp	blankscreen.bmp	circle.bmp
75	real_d	real_bottomright_same_d	2	666	23	mask.bmp	blankscreen.bmp	wfd7.bmp	blankscreen.bmp	square.bmp
75	real_d	real_bottomleft_diff_d	3	550	23	mask.bmp	blankscreen.bmp	wfd10.bmp	blankscreen.bmp	square.bmp
75	real_d	real_topleft_diff_d	4	494	23	mask.bmp	blankscreen.bmp	wmn8.bmp	blankscreen.bmp	square.bmp
75	real_d	real_topright_same_d	5	610	23	mask.bmp	blankscreen.bmp	wfd6.bmp	blankscreen.bmp	square.bmp
75	real_d	real_topleft_same_d	6	577	23	mask.bmp	blankscreen.bmp	wmn6.bmp	blankscreen.bmp	square.bmp
75	real_d	real_topright_diff_d	7	416	18	mask.bmp	blankscreen.bmp	wfd9.bmp	blankscreen.bmp	circle.bmp
75	real_d	real_bottomleft_diff_d	8	471	23	mask.bmp	blankscreen.bmp	wmn9.bmp	blankscreen.bmp	square.bmp
75	real_d	real_topleft_same_d	9	555	18	mask.bmp	blankscreen.bmp	wmd6.bmp	blankscreen.bmp	circle.bmp
75	real_d	real_bottomleft_diff_d	10	547	18	mask.bmp	blankscreen.bmp	wmd8.bmp	blankscreen.bmp	circle.bmp
75	real_d	real_topleft_diff_d	11	573	18	mask.bmp	blankscreen.bmp	wmd9.bmp	blankscreen.bmp	circle.bmp
75	real_d	real_topleft_diff_d	12	477	18	mask.bmp	blankscreen.bmp	wfn10.bmp	blankscreen.bmp	circle.bmp
75	real_d	real_bottomleft_same_d	13	713	18	mask.bmp	blankscreen.bmp	wfn6.bmp	blankscreen.bmp	circle.bmp
75	real_d	real_topright_diff_d	14	1219	23	mask.bmp	blankscreen.bmp	wfn8.bmp	blankscreen.bmp	square.bmp
75	real_d	real_topright_diff_d	15	569	23	mask.bmp	blankscreen.bmp	wmd10.bmp	blankscreen.bmp	square.bmp
75	real_d	real_topright_same_d	16	665	18	mask.bmp	blankscreen.bmp	wmd7.bmp	blankscreen.bmp	circle.bmp
75	real_d	real_bottomright_diff_d	17	1093	18	mask.bmp	blankscreen.bmp	wmn10.bmp	blankscreen.bmp	circle.bmp
75	real_d	real_bottomright_diff_d	18	464	18	mask.bmp	blankscreen.bmp	wfn9.bmp	blankscreen.bmp	circle.bmp
75	real_d	real_bottomright_diff_d	19	597	18	mask.bmp	blankscreen.bmp	wfd8.bmp	blankscreen.bmp	circle.bmp
75	real_d	real_bottomright_same_d	20	636	18	mask.bmp	blankscreen.bmp	wfn7.bmp	blankscreen.bmp	circle.bmp
87	practice	practice_bottomright_same	1	299	18	mask.bmp	blankscreen.bmp	practice7.jpg	blankscreen.bmp	circle.bmp
87	practice	practice_topright_same	2	2334	18	mask.bmp	blankscreen.bmp	practice4.jpg	blankscreen.bmp	circle.bmp
87	practice	practice_bottomright_same	3	198	18	mask.bmp	blankscreen.bmp	practice8.jpg	blankscreen.bmp	square.bmp
87	practice	practice_topleft_diff	4	1021	23	mask.bmp	blankscreen.bmp	practice9.jpg	blankscreen.bmp	square.bmp
87	practice	practice_topright_diff	5	651	23	mask.bmp	blankscreen.bmp	practice10.jpg	blankscreen.bmp	square.bmp
87	practice	practice_bottomleft_same	6	88	23	mask.bmp	blankscreen.bmp	practice6.jpg	blankscreen.bmp	square.bmp
87	practice	practice_bottomleft_diff	7	67	23	mask.bmp	blankscreen.bmp	practice11.jpg	blankscreen.bmp	square.bmp
87	practice	practice_bottomright_diff	8	376	18	mask.bmp	blankscreen.bmp	practice12.jpg	blankscreen.bmp	circle.bmp
87	practice	practice_topleft_same	9	784	18	mask.bmp	blankscreen.bmp	practice1.jpg	blankscreen.bmp	circle.bmp
87	practice	practice_topleft_same	10	711	23	mask.bmp	blankscreen.bmp	practice2.jpg	blankscreen.bmp	square.bmp
87	practice	practice_topright_same	11	609	18	mask.bmp	blankscreen.bmp	practice3.jpg	blankscreen.bmp	circle.bmp
87	practice	practice_bottomleft_same	12	408	18	mask.bmp	blankscreen.bmp	practice5.jpg	blankscreen.bmp	circle.bmp
87	real_a	real_bottomleft_diff_a	1	569	23	mask.bmp	blankscreen.bmp	wmn2.bmp	blankscreen.bmp	square.bmp
87	real_a	real_topright_diff_a	2	553	18	mask.bmp	blankscreen.bmp	wfd2.bmp	blankscreen.bmp	circle.bmp
87	real_a	real_topleft_diff_a	3	762	23	mask.bmp	blankscreen.bmp	wmd2.bmp	blankscreen.bmp	square.bmp
87	real_a	real_bottomright_diff_a	4	962	23	mask.bmp	blankscreen.bmp	wfn2.bmp	blankscreen.bmp	square.bmp
87	real_a	real_topleft_diff_a	5	635	18	mask.bmp	blankscreen.bmp	wfd1.bmp	blankscreen.bmp	circle.bmp
87	real_a	real_bottomright_diff_a	6	648	23	mask.bmp	blankscreen.bmp	wmn3.bmp	blankscreen.bmp	square.bmp
87	real_a	real_bottomleft_same_a	7	629	18	mask.bmp	blankscreen.bmp	wfn5.bmp	blankscreen.bmp	circle.bmp
87	real_a	real_topleft_diff_a	8	723	18	mask.bmp	blankscreen.bmp	wfn3.bmp	blankscreen.bmp	circle.bmp
87	real_a	real_topleft_same_a	9	709	23	mask.bmp	blankscreen.bmp	wfd4.bmp	blankscreen.bmp	square.bmp
87	real_a	real_bottomright_diff_a	10	608	18	mask.bmp	blankscreen.bmp	wmd1.bmp	blankscreen.bmp	circle.bmp
87	real_a	real_topright_diff_a	11	638	23	mask.bmp	blankscreen.bmp	wmn1.bmp	blankscreen.bmp	square.bmp
87	real_a	real_topright_diff_a	12	531	18	mask.bmp	blankscreen.bmp	wmd3.bmp	blankscreen.bmp	circle.bmp
87	real_a	real_topright_same_a	13	597	23	mask.bmp	blankscreen.bmp	wmn4.bmp	blankscreen.bmp	square.bmp
87	real_a	real_bottomleft_same_a	14	517	18	mask.bmp	blankscreen.bmp	wmd4.bmp	blankscreen.bmp	circle.bmp
87	real_a	real_bottomleft_diff_a	15	671	18	mask.bmp	blankscreen.bmp	wfd3.bmp	blankscreen.bmp	circle.bmp
87	real_a	real_topright_same_a	16	611	23	mask.bmp	blankscreen.bmp	wfd5.bmp	blankscreen.bmp	square.bmp
87	real_a	real_bottomleft_diff_a	17	425	18	mask.bmp	blankscreen.bmp	wfn1.bmp	blankscreen.bmp	circle.bmp
87	real_a	real_topleft_same_a	18	431	18	mask.bmp	blankscreen.bmp	wfn4.bmp	blankscreen.bmp	circle.bmp
87	real_a	real_bottomright_same_a	19	805	18	mask.bmp	blankscreen.bmp	wmn5.bmp	blankscreen.bmp	circle.bmp
87	real_a	real_bottomright_same_a	20	484	23	mask.bmp	blankscreen.bmp	wmd5.bmp	blankscreen.bmp	square.bmp
87	real_b	real_bottomleft_diff_b	1	570	18	mask.bmp	blankscreen.bmp	wmn8.bmp	blankscreen.bmp	circle.bmp
87	real_b	real_bottomleft_diff_b	2	466	23	mask.bmp	blankscreen.bmp	wmd6.bmp	blankscreen.bmp	square.bmp
87	real_b	real_bottomleft_same_b	3	478	18	mask.bmp	blankscreen.bmp	wfd9.bmp	blankscreen.bmp	circle.bmp
87	real_b	real_topleft_diff_b	4	546	23	mask.bmp	blankscreen.bmp	wmn6.bmp	blankscreen.bmp	square.bmp
87	real_b	real_bottomright_diff_b	5	708	23	mask.bmp	blankscreen.bmp	wmd7.bmp	blankscreen.bmp	square.bmp
87	real_b	real_topleft_diff_b	6	494	23	mask.bmp	blankscreen.bmp	wfd7.bmp	blankscreen.bmp	square.bmp
87	real_b	real_bottomleft_same_b	7	578	23	mask.bmp	blankscreen.bmp	wmd10.bmp	blankscreen.bmp	square.bmp
87	real_b	real_bottomright_same_b	8	506	23	mask.bmp	blankscreen.bmp	wfd10.bmp	blankscreen.bmp	square.bmp
87	real_b	real_topleft_same_b	9	892	23	mask.bmp	blankscreen.bmp	wmn9.bmp	blankscreen.bmp	square.bmp
87	real_b	real_topright_diff_b	10	503	23	mask.bmp	blankscreen.bmp	wmn7.bmp	blankscreen.bmp	square.bmp
87	real_b	real_topright_diff_b	11	698	18	mask.bmp	blankscreen.bmp	wfd8.bmp	blankscreen.bmp	circle.bmp
87	real_b	real_topright_same_b	12	541	23	mask.bmp	blankscreen.bmp	wmn10.bmp	blankscreen.bmp	square.bmp
87	real_b	real_topright_diff_b	13	855	23	mask.bmp	blankscreen.bmp	wfn6.bmp	blankscreen.bmp	square.bmp
87	real_b	real_topleft_same_b	14	579	23	mask.bmp	blankscreen.bmp	wmd9.bmp	blankscreen.bmp	square.bmp
87	real_b	real_bottomright_diff_b	15	555	23	mask.bmp	blankscreen.bmp	wfd6.bmp	blankscreen.bmp	square.bmp
87	real_b	real_bottomright_diff_b	16	572	18	mask.bmp	blankscreen.bmp	wfn8.bmp	blankscreen.bmp	circle.bmp
87	real_b	real_bottomright_same_b	17	564	18	mask.bmp	blankscreen.bmp	wfn10.bmp	blankscreen.bmp	circle.bmp
87	real_b	real_bottomleft_diff_b	18	580	18	mask.bmp	blankscreen.bmp	wfn7.bmp	blankscreen.bmp	circle.bmp
87	real_b	real_topright_same_b	19	1132	23	mask.bmp	blankscreen.bmp	wfn9.bmp	blankscreen.bmp	square.bmp
87	real_b	real_topleft_diff_b	20	478	18	mask.bmp	blankscreen.bmp	wmd8.bmp	blankscreen.bmp	circle.bmp
87	real_c	real_bottomright_diff_c	1	529	23	mask.bmp	blankscreen.bmp	wmd3.bmp	blankscreen.bmp	square.bmp
87	real_c	real_bottomleft_same_c	2	459	18	mask.bmp	blankscreen.bmp	wmn1.bmp	blankscreen.bmp	circle.bmp
87	real_c	real_topright_same_c	3	511	18	mask.bmp	blankscreen.bmp	wfn2.bmp	blankscreen.bmp	circle.bmp
87	real_c	real_bottomright_diff_c	4	514	23	mask.bmp	blankscreen.bmp	wmn4.bmp	blankscreen.bmp	square.bmp
87	real_c	real_topleft_same_c	5	757	23	mask.bmp	blankscreen.bmp	wfd1.bmp	blankscreen.bmp	square.bmp
87	real_c	real_bottomleft_diff_c	6	765	23	mask.bmp	blankscreen.bmp	wfd4.bmp	blankscreen.bmp	square.bmp
87	real_c	real_bottomright_same_c	7	646	23	mask.bmp	blankscreen.bmp	wmd2.bmp	blankscreen.bmp	square.bmp
87	real_c	real_topright_diff_c	8	507	18	mask.bmp	blankscreen.bmp	wmd4.bmp	blankscreen.bmp	circle.bmp
87	real_c	real_bottomright_same_c	9	558	18	mask.bmp	blankscreen.bmp	wmn2.bmp	blankscreen.bmp	circle.bmp
87	real_c	real_topleft_diff_c	10	734	23	mask.bmp	blankscreen.bmp	wfd3.bmp	blankscreen.bmp	square.bmp
87	real_c	real_topleft_same_c	11	639	23	mask.bmp	blankscreen.bmp	wfn1.bmp	blankscreen.bmp	square.bmp
87	real_c	real_topright_diff_c	12	549	18	mask.bmp	blankscreen.bmp	wfn5.bmp	blankscreen.bmp	circle.bmp
87	real_c	real_bottomright_diff_c	13	542	23	mask.bmp	blankscreen.bmp	wfd5.bmp	blankscreen.bmp	square.bmp
87	real_c	real_topright_same_c	14	655	18	mask.bmp	blankscreen.bmp	wmd1.bmp	blankscreen.bmp	circle.bmp
87	real_c	real_bottomleft_same_c	15	484	23	mask.bmp	blankscreen.bmp	wfd2.bmp	blankscreen.bmp	square.bmp
87	real_c	real_topleft_diff_c	16	479	18	mask.bmp	blankscreen.bmp	wmn5.bmp	blankscreen.bmp	circle.bmp
87	real_c	real_bottomleft_diff_c	17	524	18	mask.bmp	blankscreen.bmp	wfn3.bmp	blankscreen.bmp	circle.bmp
87	real_c	real_bottomleft_diff_c	18	550	18	mask.bmp	blankscreen.bmp	wmd5.bmp	blankscreen.bmp	circle.bmp
87	real_c	real_topleft_diff_c	19	710	18	mask.bmp	blankscreen.bmp	wfn4.bmp	blankscreen.bmp	circle.bmp
87	real_c	real_topright_diff_c	20	537	18	mask.bmp	blankscreen.bmp	wmn3.bmp	blankscreen.bmp	circle.bmp
87	real_d	real_bottomleft_diff_d	1	469	23	mask.bmp	blankscreen.bmp	wmn9.bmp	blankscreen.bmp	square.bmp
87	real_d	real_topright_diff_d	2	465	23	mask.bmp	blankscreen.bmp	wfn8.bmp	blankscreen.bmp	square.bmp
87	real_d	real_bottomleft_diff_d	3	446	23	mask.bmp	blankscreen.bmp	wmd8.bmp	blankscreen.bmp	square.bmp
87	real_d	real_bottomright_diff_d	4	1004	23	mask.bmp	blankscreen.bmp	wmn10.bmp	blankscreen.bmp	square.bmp
87	real_d	real_topright_same_d	5	450	18	mask.bmp	blankscreen.bmp	wmd7.bmp	blankscreen.bmp	circle.bmp
87	real_d	real_topleft_same_d	6	487	23	mask.bmp	blankscreen.bmp	wmd6.bmp	blankscreen.bmp	square.bmp
87	real_d	real_bottomright_diff_d	7	546	18	mask.bmp	blankscreen.bmp	wfd8.bmp	blankscreen.bmp	circle.bmp
87	real_d	real_topright_diff_d	8	595	18	mask.bmp	blankscreen.bmp	wfd9.bmp	blankscreen.bmp	circle.bmp
87	real_d	real_bottomright_same_d	9	715	18	mask.bmp	blankscreen.bmp	wfd7.bmp	blankscreen.bmp	circle.bmp
87	real_d	real_bottomleft_same_d	10	565	23	mask.bmp	blankscreen.bmp	wfn6.bmp	blankscreen.bmp	square.bmp
87	real_d	real_topleft_same_d	11	766	18	mask.bmp	blankscreen.bmp	wmn6.bmp	blankscreen.bmp	circle.bmp
87	real_d	real_bottomright_diff_d	12	470	23	mask.bmp	blankscreen.bmp	wfn9.bmp	blankscreen.bmp	square.bmp
87	real_d	real_topleft_diff_d	13	618	18	mask.bmp	blankscreen.bmp	wmd9.bmp	blankscreen.bmp	circle.bmp
87	real_d	real_topright_same_d	14	560	23	mask.bmp	blankscreen.bmp	wfd6.bmp	blankscreen.bmp	circle.bmp
87	real_d	real_topleft_diff_d	15	465	18	mask.bmp	blankscreen.bmp	wmn8.bmp	blankscreen.bmp	circle.bmp
87	real_d	real_topright_diff_d	16	526	18	mask.bmp	blankscreen.bmp	wmd10.bmp	blankscreen.bmp	circle.bmp
87	real_d	real_bottomleft_diff_d	17	496	18	mask.bmp	blankscreen.bmp	wfd10.bmp	blankscreen.bmp	circle.bmp
87	real_d	real_bottomleft_same_d	18	651	18	mask.bmp	blankscreen.bmp	wmn7.bmp	blankscreen.bmp	circle.bmp
87	real_d	real_bottomright_same_d	19	552	23	mask.bmp	blankscreen.bmp	wfn7.bmp	blankscreen.bmp	square.bmp
87	real_d	real_topleft_diff_d	20	688	23	mask.bmp	blankscreen.bmp	wfn10.bmp	blankscreen.bmp	square.bmp
93	practice	practice_bottomleft_diff	1	1001	23	mask.bmp	blankscreen.bmp	practice11.jpg	blankscreen.bmp	square.bmp
93	practice	practice_bottomleft_same	2	639	23	mask.bmp	blankscreen.bmp	practice5.jpg	blankscreen.bmp	square.bmp
93	practice	practice_topright_diff	3	556	18	mask.bmp	blankscreen.bmp	practice10.jpg	blankscreen.bmp	circle.bmp
93	practice	practice_topright_same	4	629	18	mask.bmp	blankscreen.bmp	practice3.jpg	blankscreen.bmp	circle.bmp
93	practice	practice_bottomright_diff	5	467	18	mask.bmp	blankscreen.bmp	practice12.jpg	blankscreen.bmp	circle.bmp
93	practice	practice_bottomleft_same	6	847	23	mask.bmp	blankscreen.bmp	practice6.jpg	blankscreen.bmp	square.bmp
93	practice	practice_topleft_same	7	564	18	mask.bmp	blankscreen.bmp	practice2.jpg	blankscreen.bmp	circle.bmp
93	practice	practice_topleft_diff	8	461	23	mask.bmp	blankscreen.bmp	practice9.jpg	blankscreen.bmp	square.bmp
93	practice	practice_topleft_same	9	777	23	mask.bmp	blankscreen.bmp	practice1.jpg	blankscreen.bmp	square.bmp
93	practice	practice_bottomright_same	10	753	18	mask.bmp	blankscreen.bmp	practice8.jpg	blankscreen.bmp	circle.bmp
93	practice	practice_topright_same	11	522	18	mask.bmp	blankscreen.bmp	practice4.jpg	blankscreen.bmp	circle.bmp
93	practice	practice_bottomright_same	12	484	18	mask.bmp	blankscreen.bmp	practice7.jpg	blankscreen.bmp	circle.bmp
93	real_a	real_topleft_diff_a	1	917	18	mask.bmp	blankscreen.bmp	wmd2.bmp	blankscreen.bmp	circle.bmp
93	real_a	real_bottomright_diff_a	2	511	18	mask.bmp	blankscreen.bmp	wmn3.bmp	blankscreen.bmp	circle.bmp
93	real_a	real_topright_diff_a	3	610	23	mask.bmp	blankscreen.bmp	wmd3.bmp	blankscreen.bmp	square.bmp
93	real_a	real_bottomleft_diff_a	4	608	23	mask.bmp	blankscreen.bmp	wmn2.bmp	blankscreen.bmp	square.bmp
93	real_a	real_topright_same_a	5	559	23	mask.bmp	blankscreen.bmp	wmn4.bmp	blankscreen.bmp	square.bmp
93	real_a	real_topleft_diff_a	6	528	18	mask.bmp	blankscreen.bmp	wfn3.bmp	blankscreen.bmp	circle.bmp
93	real_a	real_topright_same_a	7	626	23	mask.bmp	blankscreen.bmp	wfd5.bmp	blankscreen.bmp	square.bmp
93	real_a	real_topleft_diff_a	8	864	23	mask.bmp	blankscreen.bmp	wfd1.bmp	blankscreen.bmp	square.bmp
93	real_a	real_topleft_same_a	9	596	23	mask.bmp	blankscreen.bmp	wfn4.bmp	blankscreen.bmp	square.bmp
93	real_a	real_bottomleft_same_a	10	547	18	mask.bmp	blankscreen.bmp	wfn5.bmp	blankscreen.bmp	circle.bmp
93	real_a	real_bottomright_diff_a	11	589	23	mask.bmp	blankscreen.bmp	wmd1.bmp	blankscreen.bmp	square.bmp
93	real_a	real_bottomright_same_a	12	572	23	mask.bmp	blankscreen.bmp	wmd5.bmp	blankscreen.bmp	square.bmp
93	real_a	real_bottomleft_diff_a	13	668	23	mask.bmp	blankscreen.bmp	wfd3.bmp	blankscreen.bmp	square.bmp
93	real_a	real_bottomleft_same_a	14	512	23	mask.bmp	blankscreen.bmp	wmd4.bmp	blankscreen.bmp	square.bmp
93	real_a	real_bottomright_same_a	15	395	18	mask.bmp	blankscreen.bmp	wmn5.bmp	blankscreen.bmp	circle.bmp
93	real_a	real_topleft_same_a	16	530	23	mask.bmp	blankscreen.bmp	wfd4.bmp	blankscreen.bmp	square.bmp
93	real_a	real_bottomleft_diff_a	17	524	23	mask.bmp	blankscreen.bmp	wfn1.bmp	blankscreen.bmp	square.bmp
93	real_a	real_topright_diff_a	18	670	18	mask.bmp	blankscreen.bmp	wfd2.bmp	blankscreen.bmp	circle.bmp
93	real_a	real_bottomright_diff_a	19	698	18	mask.bmp	blankscreen.bmp	wfn2.bmp	blankscreen.bmp	circle.bmp
93	real_a	real_topright_diff_a	20	765	23	mask.bmp	blankscreen.bmp	wmn1.bmp	blankscreen.bmp	square.bmp
93	real_b	real_topleft_same_b	1	548	18	mask.bmp	blankscreen.bmp	wmn9.bmp	blankscreen.bmp	circle.bmp
93	real_b	real_topleft_same_b	2	542	18	mask.bmp	blankscreen.bmp	wmd9.bmp	blankscreen.bmp	circle.bmp
93	real_b	real_bottomright_same_b	3	551	23	mask.bmp	blankscreen.bmp	wfn10.bmp	blankscreen.bmp	square.bmp
93	real_b	real_bottomright_diff_b	4	576	23	mask.bmp	blankscreen.bmp	wfd6.bmp	blankscreen.bmp	square.bmp
93	real_b	real_bottomright_diff_b	5	519	18	mask.bmp	blankscreen.bmp	wfn8.bmp	blankscreen.bmp	circle.bmp
93	real_b	real_topright_same_b	6	434	18	mask.bmp	blankscreen.bmp	wfn9.bmp	blankscreen.bmp	circle.bmp
93	real_b	real_topleft_diff_b	7	527	18	mask.bmp	blankscreen.bmp	wmn6.bmp	blankscreen.bmp	circle.bmp
93	real_b	real_bottomright_same_b	8	529	23	mask.bmp	blankscreen.bmp	wfd10.bmp	blankscreen.bmp	square.bmp
93	real_b	real_topright_same_b	9	547	23	mask.bmp	blankscreen.bmp	wmn10.bmp	blankscreen.bmp	square.bmp
93	real_b	real_bottomleft_diff_b	10	716	18	mask.bmp	blankscreen.bmp	wmd6.bmp	blankscreen.bmp	circle.bmp
93	real_b	real_bottomleft_diff_b	11	590	18	mask.bmp	blankscreen.bmp	wmn8.bmp	blankscreen.bmp	circle.bmp
93	real_b	real_bottomleft_diff_b	12	686	18	mask.bmp	blankscreen.bmp	wfn7.bmp	blankscreen.bmp	circle.bmp
93	real_b	real_topright_diff_b	13	689	18	mask.bmp	blankscreen.bmp	wfd8.bmp	blankscreen.bmp	circle.bmp
93	real_b	real_topright_diff_b	14	604	23	mask.bmp	blankscreen.bmp	wfn6.bmp	blankscreen.bmp	square.bmp
93	real_b	real_bottomleft_same_b	15	611	23	mask.bmp	blankscreen.bmp	wfd9.bmp	blankscreen.bmp	square.bmp
93	real_b	real_topleft_diff_b	16	553	18	mask.bmp	blankscreen.bmp	wmd8.bmp	blankscreen.bmp	circle.bmp
93	real_b	real_bottomleft_same_b	17	626	23	mask.bmp	blankscreen.bmp	wmd10.bmp	blankscreen.bmp	square.bmp
93	real_b	real_topright_diff_b	18	648	18	mask.bmp	blankscreen.bmp	wmn7.bmp	blankscreen.bmp	circle.bmp
93	real_b	real_bottomright_diff_b	19	725	23	mask.bmp	blankscreen.bmp	wmd7.bmp	blankscreen.bmp	square.bmp
93	real_b	real_topleft_diff_b	20	735	23	mask.bmp	blankscreen.bmp	wfd7.bmp	blankscreen.bmp	square.bmp
93	real_c	real_topleft_diff_c	1	683	18	mask.bmp	blankscreen.bmp	wfd3.bmp	blankscreen.bmp	circle.bmp
93	real_c	real_bottomright_same_c	2	558	18	mask.bmp	blankscreen.bmp	wmd2.bmp	blankscreen.bmp	circle.bmp
93	real_c	real_topleft_same_c	3	591	23	mask.bmp	blankscreen.bmp	wfn1.bmp	blankscreen.bmp	square.bmp
93	real_c	real_topleft_diff_c	4	566	23	mask.bmp	blankscreen.bmp	wmn5.bmp	blankscreen.bmp	square.bmp
93	real_c	real_topleft_diff_c	5	502	18	mask.bmp	blankscreen.bmp	wfn4.bmp	blankscreen.bmp	circle.bmp
93	real_c	real_bottomright_same_c	6	657	18	mask.bmp	blankscreen.bmp	wmn2.bmp	blankscreen.bmp	circle.bmp
93	real_c	real_bottomleft_same_c	7	582	23	mask.bmp	blankscreen.bmp	wfd2.bmp	blankscreen.bmp	square.bmp
93	real_c	real_topright_diff_c	8	629	23	mask.bmp	blankscreen.bmp	wmn3.bmp	blankscreen.bmp	square.bmp
93	real_c	real_topright_same_c	9	531	18	mask.bmp	blankscreen.bmp	wmd1.bmp	blankscreen.bmp	circle.bmp
93	real_c	real_topright_same_c	10	573	23	mask.bmp	blankscreen.bmp	wfn2.bmp	blankscreen.bmp	square.bmp
93	real_c	real_bottomleft_diff_c	11	565	18	mask.bmp	blankscreen.bmp	wfd4.bmp	blankscreen.bmp	circle.bmp
93	real_c	real_bottomleft_same_c	12	669	18	mask.bmp	blankscreen.bmp	wmn1.bmp	blankscreen.bmp	circle.bmp
93	real_c	real_bottomright_diff_c	13	697	18	mask.bmp	blankscreen.bmp	wfd5.bmp	blankscreen.bmp	circle.bmp
93	real_c	real_topleft_same_c	14	468	18	mask.bmp	blankscreen.bmp	wfd1.bmp	blankscreen.bmp	circle.bmp
93	real_c	real_bottomleft_diff_c	15	768	23	mask.bmp	blankscreen.bmp	wmd5.bmp	blankscreen.bmp	square.bmp
93	real_c	real_topright_diff_c	16	864	18	mask.bmp	blankscreen.bmp	wmd4.bmp	blankscreen.bmp	circle.bmp
93	real_c	real_bottomright_diff_c	17	668	18	mask.bmp	blankscreen.bmp	wmd3.bmp	blankscreen.bmp	circle.bmp
93	real_c	real_topright_diff_c	18	576	18	mask.bmp	blankscreen.bmp	wfn5.bmp	blankscreen.bmp	circle.bmp
93	real_c	real_bottomleft_diff_c	19	584	18	mask.bmp	blankscreen.bmp	wfn3.bmp	blankscreen.bmp	circle.bmp
93	real_c	real_bottomright_diff_c	20	679	23	mask.bmp	blankscreen.bmp	wmn4.bmp	blankscreen.bmp	square.bmp
93	real_d	real_bottomright_same_d	1	518	18	mask.bmp	blankscreen.bmp	wfd7.bmp	blankscreen.bmp	circle.bmp
93	real_d	real_bottomright_diff_d	2	656	23	mask.bmp	blankscreen.bmp	wmn10.bmp	blankscreen.bmp	square.bmp
93	real_d	real_bottomright_diff_d	3	629	18	mask.bmp	blankscreen.bmp	wfn9.bmp	blankscreen.bmp	circle.bmp
93	real_d	real_bottomleft_diff_d	4	443	23	mask.bmp	blankscreen.bmp	wmn9.bmp	blankscreen.bmp	square.bmp
93	real_d	real_topright_diff_d	5	648	18	mask.bmp	blankscreen.bmp	wfd9.bmp	blankscreen.bmp	circle.bmp
93	real_d	real_topleft_same_d	6	413	23	mask.bmp	blankscreen.bmp	wmn6.bmp	blankscreen.bmp	square.bmp
93	real_d	real_bottomright_diff_d	7	588	18	mask.bmp	blankscreen.bmp	wfd8.bmp	blankscreen.bmp	circle.bmp
93	real_d	real_topright_diff_d	8	483	18	mask.bmp	blankscreen.bmp	wmd10.bmp	blankscreen.bmp	circle.bmp
93	real_d	real_topleft_same_d	9	574	18	mask.bmp	blankscreen.bmp	wmd6.bmp	blankscreen.bmp	circle.bmp
93	real_d	real_topright_diff_d	10	518	18	mask.bmp	blankscreen.bmp	wfn8.bmp	blankscreen.bmp	circle.bmp
93	real_d	real_topright_same_d	11	600	18	mask.bmp	blankscreen.bmp	wfd6.bmp	blankscreen.bmp	circle.bmp
93	real_d	real_bottomleft_same_d	12	695	23	mask.bmp	blankscreen.bmp	wfn6.bmp	blankscreen.bmp	square.bmp
93	real_d	real_bottomleft_diff_d	13	386	23	mask.bmp	blankscreen.bmp	wmd8.bmp	blankscreen.bmp	square.bmp
93	real_d	real_bottomleft_diff_d	14	506	23	mask.bmp	blankscreen.bmp	wfd10.bmp	blankscreen.bmp	square.bmp
93	real_d	real_topleft_diff_d	15	540	18	mask.bmp	blankscreen.bmp	wmn8.bmp	blankscreen.bmp	circle.bmp
93	real_d	real_bottomleft_same_d	16	438	23	mask.bmp	blankscreen.bmp	wmn7.bmp	blankscreen.bmp	square.bmp
93	real_d	real_topleft_diff_d	17	595	18	mask.bmp	blankscreen.bmp	wmd9.bmp	blankscreen.bmp	circle.bmp
93	real_d	real_topleft_diff_d	18	482	23	mask.bmp	blankscreen.bmp	wfn10.bmp	blankscreen.bmp	square.bmp
93	real_d	real_bottomright_same_d	19	598	18	mask.bmp	blankscreen.bmp	wfn7.bmp	blankscreen.bmp	circle.bmp
93	real_d	real_topright_same_d	20	773	18	mask.bmp	blankscreen.bmp	wmd7.bmp	blankscreen.bmp	circle.bmp
97	practice	practice_topleft_same	1	2396	23	mask.bmp	blankscreen.bmp	practice1.jpg	blankscreen.bmp	circle.bmp
97	practice	practice_bottomleft_same	2	650	23	mask.bmp	blankscreen.bmp	practice6.jpg	blankscreen.bmp	square.bmp
97	practice	practice_bottomright_diff	3	631	18	mask.bmp	blankscreen.bmp	practice12.jpg	blankscreen.bmp	circle.bmp
97	practice	practice_bottomleft_diff	4	829	18	mask.bmp	blankscreen.bmp	practice11.jpg	blankscreen.bmp	circle.bmp
97	practice	practice_topright_diff	5	714	23	mask.bmp	blankscreen.bmp	practice10.jpg	blankscreen.bmp	square.bmp
97	practice	practice_topright_same	6	1052	23	mask.bmp	blankscreen.bmp	practice4.jpg	blankscreen.bmp	square.bmp
97	practice	practice_bottomright_same	7	616	23	mask.bmp	blankscreen.bmp	practice7.jpg	blankscreen.bmp	square.bmp
97	practice	practice_topleft_same	8	782	18	mask.bmp	blankscreen.bmp	practice2.jpg	blankscreen.bmp	circle.bmp
97	practice	practice_topleft_diff	9	686	23	mask.bmp	blankscreen.bmp	practice9.jpg	blankscreen.bmp	square.bmp
97	practice	practice_topright_same	10	705	23	mask.bmp	blankscreen.bmp	practice3.jpg	blankscreen.bmp	square.bmp
97	practice	practice_bottomleft_same	11	571	23	mask.bmp	blankscreen.bmp	practice5.jpg	blankscreen.bmp	square.bmp
97	practice	practice_bottomright_same	12	539	18	mask.bmp	blankscreen.bmp	practice8.jpg	blankscreen.bmp	circle.bmp
97	real_a	real_bottomright_diff_a	1	1823	18	mask.bmp	blankscreen.bmp	wmn3.bmp	blankscreen.bmp	circle.bmp
97	real_a	real_topright_same_a	2	627	18	mask.bmp	blankscreen.bmp	wfd5.bmp	blankscreen.bmp	circle.bmp
97	real_a	real_bottomright_diff_a	3	601	23	mask.bmp	blankscreen.bmp	wfn2.bmp	blankscreen.bmp	square.bmp
97	real_a	real_topleft_diff_a	4	440	23	mask.bmp	blankscreen.bmp	wfn3.bmp	blankscreen.bmp	square.bmp
97	real_a	real_topleft_same_a	5	509	18	mask.bmp	blankscreen.bmp	wfn4.bmp	blankscreen.bmp	circle.bmp
97	real_a	real_bottomleft_same_a	6	592	18	mask.bmp	blankscreen.bmp	wfn5.bmp	blankscreen.bmp	circle.bmp
97	real_a	real_topright_diff_a	7	815	18	mask.bmp	blankscreen.bmp	wfd2.bmp	blankscreen.bmp	circle.bmp
97	real_a	real_bottomleft_diff_a	8	662	23	mask.bmp	blankscreen.bmp	wmn2.bmp	blankscreen.bmp	square.bmp
97	real_a	real_topright_diff_a	9	570	18	mask.bmp	blankscreen.bmp	wmd3.bmp	blankscreen.bmp	circle.bmp
97	real_a	real_bottomright_diff_a	10	1050	23	mask.bmp	blankscreen.bmp	wmd1.bmp	blankscreen.bmp	circle.bmp
97	real_a	real_topleft_diff_a	11	750	18	mask.bmp	blankscreen.bmp	wmd2.bmp	blankscreen.bmp	circle.bmp
97	real_a	real_bottomright_same_a	12	663	18	mask.bmp	blankscreen.bmp	wmn5.bmp	blankscreen.bmp	circle.bmp
97	real_a	real_topleft_diff_a	13	588	23	mask.bmp	blankscreen.bmp	wfd1.bmp	blankscreen.bmp	square.bmp
97	real_a	real_bottomright_same_a	14	851	23	mask.bmp	blankscreen.bmp	wmd5.bmp	blankscreen.bmp	square.bmp
97	real_a	real_topleft_same_a	15	727	23	mask.bmp	blankscreen.bmp	wfd4.bmp	blankscreen.bmp	square.bmp
97	real_a	real_bottomleft_diff_a	16	657	23	mask.bmp	blankscreen.bmp	wfd3.bmp	blankscreen.bmp	square.bmp
97	real_a	real_bottomleft_same_a	17	606	18	mask.bmp	blankscreen.bmp	wmd4.bmp	blankscreen.bmp	circle.bmp
97	real_a	real_topright_diff_a	18	732	23	mask.bmp	blankscreen.bmp	wmn1.bmp	blankscreen.bmp	square.bmp
97	real_a	real_topright_same_a	19	919	18	mask.bmp	blankscreen.bmp	wmn4.bmp	blankscreen.bmp	circle.bmp
97	real_a	real_bottomleft_diff_a	20	600	23	mask.bmp	blankscreen.bmp	wfn1.bmp	blankscreen.bmp	square.bmp
97	real_b	real_topleft_diff_b	1	495	23	mask.bmp	blankscreen.bmp	wmn6.bmp	blankscreen.bmp	circle.bmp
97	real_b	real_bottomright_same_b	2	714	18	mask.bmp	blankscreen.bmp	wfd10.bmp	blankscreen.bmp	circle.bmp
97	real_b	real_bottomright_diff_b	3	620	18	mask.bmp	blankscreen.bmp	wmd7.bmp	blankscreen.bmp	circle.bmp
97	real_b	real_bottomleft_diff_b	4	418	18	mask.bmp	blankscreen.bmp	wmd6.bmp	blankscreen.bmp	circle.bmp
97	real_b	real_topright_same_b	5	449	18	mask.bmp	blankscreen.bmp	wmn10.bmp	blankscreen.bmp	circle.bmp
97	real_b	real_bottomleft_same_b	6	541	18	mask.bmp	blankscreen.bmp	wfd9.bmp	blankscreen.bmp	circle.bmp
97	real_b	real_bottomright_diff_b	7	463	18	mask.bmp	blankscreen.bmp	wfn8.bmp	blankscreen.bmp	circle.bmp
97	real_b	real_bottomleft_diff_b	8	411	18	mask.bmp	blankscreen.bmp	wfn7.bmp	blankscreen.bmp	circle.bmp
97	real_b	real_topright_same_b	9	466	18	mask.bmp	blankscreen.bmp	wfn9.bmp	blankscreen.bmp	circle.bmp
97	real_b	real_topright_diff_b	10	591	23	mask.bmp	blankscreen.bmp	wfd8.bmp	blankscreen.bmp	square.bmp
97	real_b	real_bottomleft_same_b	11	597	23	mask.bmp	blankscreen.bmp	wmd10.bmp	blankscreen.bmp	square.bmp
97	real_b	real_bottomright_same_b	12	453	23	mask.bmp	blankscreen.bmp	wfn10.bmp	blankscreen.bmp	square.bmp
97	real_b	real_bottomleft_diff_b	13	482	18	mask.bmp	blankscreen.bmp	wmn8.bmp	blankscreen.bmp	circle.bmp
97	real_b	real_topleft_same_b	14	758	18	mask.bmp	blankscreen.bmp	wmn9.bmp	blankscreen.bmp	circle.bmp
97	real_b	real_topright_diff_b	15	574	18	mask.bmp	blankscreen.bmp	wmn7.bmp	blankscreen.bmp	circle.bmp
97	real_b	real_topleft_diff_b	16	790	18	mask.bmp	blankscreen.bmp	wfd7.bmp	blankscreen.bmp	circle.bmp
97	real_b	real_topleft_same_b	17	461	18	mask.bmp	blankscreen.bmp	wmd9.bmp	blankscreen.bmp	circle.bmp
97	real_b	real_topright_diff_b	18	578	18	mask.bmp	blankscreen.bmp	wfn6.bmp	blankscreen.bmp	circle.bmp
97	real_b	real_topleft_diff_b	19	530	23	mask.bmp	blankscreen.bmp	wmd8.bmp	blankscreen.bmp	square.bmp
97	real_b	real_bottomright_diff_b	20	580	18	mask.bmp	blankscreen.bmp	wfd6.bmp	blankscreen.bmp	circle.bmp
97	real_c	real_bottomleft_diff_c	1	1306	18	mask.bmp	blankscreen.bmp	wfd4.bmp	blankscreen.bmp	circle.bmp
97	real_c	real_topright_diff_c	2	860	23	mask.bmp	blankscreen.bmp	wmd4.bmp	blankscreen.bmp	square.bmp
97	real_c	real_bottomleft_same_c	3	696	18	mask.bmp	blankscreen.bmp	wfd2.bmp	blankscreen.bmp	circle.bmp
97	real_c	real_topleft_diff_c	4	923	18	mask.bmp	blankscreen.bmp	wfd3.bmp	blankscreen.bmp	circle.bmp
97	real_c	real_topright_diff_c	5	645	18	mask.bmp	blankscreen.bmp	wfn5.bmp	blankscreen.bmp	circle.bmp
97	real_c	real_bottomleft_diff_c	6	602	23	mask.bmp	blankscreen.bmp	wmd5.bmp	blankscreen.bmp	square.bmp
97	real_c	real_bottomright_same_c	7	865	18	mask.bmp	blankscreen.bmp	wmd2.bmp	blankscreen.bmp	circle.bmp
97	real_c	real_topright_same_c	8	1165	23	mask.bmp	blankscreen.bmp	wmd1.bmp	blankscreen.bmp	square.bmp
97	real_c	real_topright_diff_c	9	622	23	mask.bmp	blankscreen.bmp	wmn3.bmp	blankscreen.bmp	square.bmp
97	real_c	real_topleft_same_c	10	587	23	mask.bmp	blankscreen.bmp	wfn1.bmp	blankscreen.bmp	square.bmp
97	real_c	real_topleft_diff_c	11	667	23	mask.bmp	blankscreen.bmp	wmn5.bmp	blankscreen.bmp	square.bmp
97	real_c	real_topleft_diff_c	12	655	23	mask.bmp	blankscreen.bmp	wfn4.bmp	blankscreen.bmp	square.bmp
97	real_c	real_bottomright_same_c	13	595	23	mask.bmp	blankscreen.bmp	wmn2.bmp	blankscreen.bmp	square.bmp
97	real_c	real_topright_same_c	14	1354	18	mask.bmp	blankscreen.bmp	wfn2.bmp	blankscreen.bmp	circle.bmp
97	real_c	real_bottomright_diff_c	15	794	23	mask.bmp	blankscreen.bmp	wmd3.bmp	blankscreen.bmp	square.bmp
97	real_c	real_bottomleft_diff_c	16	1210	23	mask.bmp	blankscreen.bmp	wfn3.bmp	blankscreen.bmp	square.bmp
97	real_c	real_bottomleft_same_c	17	1392	18	mask.bmp	blankscreen.bmp	wmn1.bmp	blankscreen.bmp	circle.bmp
97	real_c	real_bottomright_diff_c	18	598	18	mask.bmp	blankscreen.bmp	wmn4.bmp	blankscreen.bmp	square.bmp
97	real_c	real_topleft_same_c	19	557	23	mask.bmp	blankscreen.bmp	wfd1.bmp	blankscreen.bmp	square.bmp
97	real_c	real_bottomright_diff_c	20	693	18	mask.bmp	blankscreen.bmp	wfd5.bmp	blankscreen.bmp	circle.bmp
97	real_d	real_topright_diff_d	1	1181	23	mask.bmp	blankscreen.bmp	wfd9.bmp	blankscreen.bmp	square.bmp
97	real_d	real_bottomright_same_d	2	676	23	mask.bmp	blankscreen.bmp	wfd7.bmp	blankscreen.bmp	square.bmp
97	real_d	real_bottomleft_same_d	3	673	23	mask.bmp	blankscreen.bmp	wmn7.bmp	blankscreen.bmp	square.bmp
97	real_d	real_bottomleft_diff_d	4	516	23	mask.bmp	blankscreen.bmp	wmn9.bmp	blankscreen.bmp	square.bmp
97	real_d	real_topleft_diff_d	5	574	23	mask.bmp	blankscreen.bmp	wmn8.bmp	blankscreen.bmp	square.bmp
97	real_d	real_topleft_same_d	6	662	23	mask.bmp	blankscreen.bmp	wmd6.bmp	blankscreen.bmp	square.bmp
97	real_d	real_topright_diff_d	7	595	18	mask.bmp	blankscreen.bmp	wmd10.bmp	blankscreen.bmp	circle.bmp
97	real_d	real_bottomleft_diff_d	8	890	18	mask.bmp	blankscreen.bmp	wmd8.bmp	blankscreen.bmp	circle.bmp
97	real_d	real_bottomright_diff_d	9	397	18	mask.bmp	blankscreen.bmp	wfn9.bmp	blankscreen.bmp	circle.bmp
97	real_d	real_topright_diff_d	10	645	23	mask.bmp	blankscreen.bmp	wfn8.bmp	blankscreen.bmp	square.bmp
97	real_d	real_topleft_same_d	11	698	23	mask.bmp	blankscreen.bmp	wmn6.bmp	blankscreen.bmp	square.bmp
97	real_d	real_bottomright_diff_d	12	677	18	mask.bmp	blankscreen.bmp	wfd8.bmp	blankscreen.bmp	circle.bmp
97	real_d	real_topleft_diff_d	13	881	18	mask.bmp	blankscreen.bmp	wfn10.bmp	blankscreen.bmp	circle.bmp
97	real_d	real_bottomright_diff_d	14	757	18	mask.bmp	blankscreen.bmp	wmn10.bmp	blankscreen.bmp	circle.bmp
97	real_d	real_topright_same_d	15	741	18	mask.bmp	blankscreen.bmp	wmd7.bmp	blankscreen.bmp	circle.bmp
97	real_d	real_bottomleft_same_d	16	670	18	mask.bmp	blankscreen.bmp	wfn6.bmp	blankscreen.bmp	circle.bmp
97	real_d	real_bottomright_same_d	17	546	18	mask.bmp	blankscreen.bmp	wfn7.bmp	blankscreen.bmp	circle.bmp
97	real_d	real_topleft_diff_d	18	396	23	mask.bmp	blankscreen.bmp	wmd9.bmp	blankscreen.bmp	square.bmp
97	real_d	real_bottomleft_diff_d	19	587	18	mask.bmp	blankscreen.bmp	wfd10.bmp	blankscreen.bmp	circle.bmp
97	real_d	real_topright_same_d	20	682	23	mask.bmp	blankscreen.bmp	wfd6.bmp	blankscreen.bmp	square.bmp
118	practice	practice_topright_same	1	428	18	mask.bmp	blankscreen.bmp	practice3.jpg	blankscreen.bmp	square.bmp
118	practice	practice_topleft_same	2	658	23	mask.bmp	blankscreen.bmp	practice2.jpg	blankscreen.bmp	square.bmp
118	practice	practice_bottomleft_diff	3	623	18	mask.bmp	blankscreen.bmp	practice11.jpg	blankscreen.bmp	circle.bmp
118	practice	practice_bottomleft_same	4	693	18	mask.bmp	blankscreen.bmp	practice5.jpg	blankscreen.bmp	square.bmp
118	practice	practice_topright_diff	5	736	18	mask.bmp	blankscreen.bmp	practice10.jpg	blankscreen.bmp	square.bmp
118	practice	practice_bottomleft_same	6	681	18	mask.bmp	blankscreen.bmp	practice6.jpg	blankscreen.bmp	circle.bmp
118	practice	practice_bottomright_diff	7	733	18	mask.bmp	blankscreen.bmp	practice12.jpg	blankscreen.bmp	circle.bmp
118	practice	practice_bottomright_same	8	718	18	mask.bmp	blankscreen.bmp	practice7.jpg	blankscreen.bmp	circle.bmp
118	practice	practice_topleft_diff	9	520	23	mask.bmp	blankscreen.bmp	practice9.jpg	blankscreen.bmp	square.bmp
118	practice	practice_bottomright_same	10	1106	23	mask.bmp	blankscreen.bmp	practice8.jpg	blankscreen.bmp	square.bmp
118	practice	practice_topleft_same	11	716	23	mask.bmp	blankscreen.bmp	practice1.jpg	blankscreen.bmp	square.bmp
118	practice	practice_topright_same	12	558	18	mask.bmp	blankscreen.bmp	practice4.jpg	blankscreen.bmp	circle.bmp
118	real_a	real_bottomright_same_a	1	845	23	mask.bmp	blankscreen.bmp	wmd5.bmp	blankscreen.bmp	square.bmp
118	real_a	real_bottomright_diff_a	2	658	23	mask.bmp	blankscreen.bmp	wfn2.bmp	blankscreen.bmp	square.bmp
118	real_a	real_bottomleft_same_a	3	783	18	mask.bmp	blankscreen.bmp	wmd4.bmp	blankscreen.bmp	circle.bmp
118	real_a	real_bottomleft_diff_a	4	629	23	mask.bmp	blankscreen.bmp	wfn1.bmp	blankscreen.bmp	square.bmp
118	real_a	real_topright_same_a	5	867	23	mask.bmp	blankscreen.bmp	wfd5.bmp	blankscreen.bmp	square.bmp
118	real_a	real_topright_diff_a	6	791	18	mask.bmp	blankscreen.bmp	wmn1.bmp	blankscreen.bmp	circle.bmp
118	real_a	real_bottomright_same_a	7	870	23	mask.bmp	blankscreen.bmp	wmn5.bmp	blankscreen.bmp	square.bmp
118	real_a	real_bottomright_diff_a	8	490	18	mask.bmp	blankscreen.bmp	wmn3.bmp	blankscreen.bmp	circle.bmp
118	real_a	real_bottomleft_same_a	9	621	23	mask.bmp	blankscreen.bmp	wfn5.bmp	blankscreen.bmp	circle.bmp
118	real_a	real_topright_same_a	10	731	23	mask.bmp	blankscreen.bmp	wmn4.bmp	blankscreen.bmp	square.bmp
118	real_a	real_bottomleft_diff_a	11	645	18	mask.bmp	blankscreen.bmp	wfd3.bmp	blankscreen.bmp	circle.bmp
118	real_a	real_topright_diff_a	12	682	23	mask.bmp	blankscreen.bmp	wfd2.bmp	blankscreen.bmp	square.bmp
118	real_a	real_bottomright_diff_a	13	790	23	mask.bmp	blankscreen.bmp	wmd1.bmp	blankscreen.bmp	square.bmp
118	real_a	real_bottomleft_diff_a	14	589	18	mask.bmp	blankscreen.bmp	wmn2.bmp	blankscreen.bmp	circle.bmp
118	real_a	real_topleft_same_a	15	780	18	mask.bmp	blankscreen.bmp	wfn4.bmp	blankscreen.bmp	circle.bmp
118	real_a	real_topleft_diff_a	16	596	23	mask.bmp	blankscreen.bmp	wfn3.bmp	blankscreen.bmp	square.bmp
118	real_a	real_topleft_diff_a	17	1011	23	mask.bmp	blankscreen.bmp	wfd1.bmp	blankscreen.bmp	square.bmp
118	real_a	real_topleft_diff_a	18	586	23	mask.bmp	blankscreen.bmp	wmd2.bmp	blankscreen.bmp	square.bmp
118	real_a	real_topleft_same_a	19	689	23	mask.bmp	blankscreen.bmp	wfd4.bmp	blankscreen.bmp	square.bmp
118	real_a	real_topright_diff_a	20	796	23	mask.bmp	blankscreen.bmp	wmd3.bmp	blankscreen.bmp	square.bmp
118	real_b	real_bottomright_same_b	1	662	23	mask.bmp	blankscreen.bmp	wfd10.bmp	blankscreen.bmp	square.bmp
118	real_b	real_topleft_diff_b	2	619	18	mask.bmp	blankscreen.bmp	wfd7.bmp	blankscreen.bmp	circle.bmp
118	real_b	real_topright_diff_b	3	721	18	mask.bmp	blankscreen.bmp	wfd8.bmp	blankscreen.bmp	circle.bmp
118	real_b	real_topleft_diff_b	4	811	18	mask.bmp	blankscreen.bmp	wmd8.bmp	blankscreen.bmp	circle.bmp
118	real_b	real_topright_diff_b	5	585	18	mask.bmp	blankscreen.bmp	wfn6.bmp	blankscreen.bmp	square.bmp
118	real_b	real_topright_same_b	6	641	18	mask.bmp	blankscreen.bmp	wfn9.bmp	blankscreen.bmp	circle.bmp
118	real_b	real_bottomright_diff_b	7	966	18	mask.bmp	blankscreen.bmp	wmd7.bmp	blankscreen.bmp	circle.bmp
118	real_b	real_topleft_same_b	8	565	18	mask.bmp	blankscreen.bmp	wmn9.bmp	blankscreen.bmp	circle.bmp
118	real_b	real_topright_same_b	9	598	18	mask.bmp	blankscreen.bmp	wmn10.bmp	blankscreen.bmp	circle.bmp
118	real_b	real_topleft_same_b	10	581	18	mask.bmp	blankscreen.bmp	wmd9.bmp	blankscreen.bmp	circle.bmp
118	real_b	real_bottomright_diff_b	11	813	18	mask.bmp	blankscreen.bmp	wfn8.bmp	blankscreen.bmp	circle.bmp
118	real_b	real_bottomleft_same_b	12	571	18	mask.bmp	blankscreen.bmp	wmd10.bmp	blankscreen.bmp	circle.bmp
118	real_b	real_topleft_diff_b	13	643	23	mask.bmp	blankscreen.bmp	wmn6.bmp	blankscreen.bmp	square.bmp
118	real_b	real_bottomright_diff_b	14	784	18	mask.bmp	blankscreen.bmp	wfd6.bmp	blankscreen.bmp	circle.bmp
118	real_b	real_bottomleft_diff_b	15	463	18	mask.bmp	blankscreen.bmp	wmn8.bmp	blankscreen.bmp	circle.bmp
118	real_b	real_topright_diff_b	16	980	18	mask.bmp	blankscreen.bmp	wmn7.bmp	blankscreen.bmp	circle.bmp
118	real_b	real_bottomleft_same_b	17	468	18	mask.bmp	blankscreen.bmp	wfd9.bmp	blankscreen.bmp	circle.bmp
118	real_b	real_bottomright_same_b	18	560	18	mask.bmp	blankscreen.bmp	wfn10.bmp	blankscreen.bmp	circle.bmp
118	real_b	real_bottomleft_diff_b	19	624	23	mask.bmp	blankscreen.bmp	wfn7.bmp	blankscreen.bmp	square.bmp
118	real_b	real_bottomleft_diff_b	20	654	23	mask.bmp	blankscreen.bmp	wmd6.bmp	blankscreen.bmp	square.bmp
118	real_c	real_bottomright_same_c	1	623	18	mask.bmp	blankscreen.bmp	wmd2.bmp	blankscreen.bmp	circle.bmp
118	real_c	real_topleft_same_c	2	709	23	mask.bmp	blankscreen.bmp	wfd1.bmp	blankscreen.bmp	square.bmp
118	real_c	real_bottomright_diff_c	3	647	23	mask.bmp	blankscreen.bmp	wfd5.bmp	blankscreen.bmp	square.bmp
118	real_c	real_bottomright_same_c	4	820	23	mask.bmp	blankscreen.bmp	wmn2.bmp	blankscreen.bmp	square.bmp
118	real_c	real_bottomleft_diff_c	5	810	23	mask.bmp	blankscreen.bmp	wmd5.bmp	blankscreen.bmp	square.bmp
118	real_c	real_bottomright_diff_c	6	576	23	mask.bmp	blankscreen.bmp	wmn4.bmp	blankscreen.bmp	square.bmp
118	real_c	real_topright_diff_c	7	617	23	mask.bmp	blankscreen.bmp	wmn3.bmp	blankscreen.bmp	square.bmp
118	real_c	real_bottomleft_diff_c	8	654	18	mask.bmp	blankscreen.bmp	wfd4.bmp	blankscreen.bmp	circle.bmp
118	real_c	real_bottomleft_same_c	9	667	23	mask.bmp	blankscreen.bmp	wmn1.bmp	blankscreen.bmp	square.bmp
118	real_c	real_topleft_same_c	10	615	18	mask.bmp	blankscreen.bmp	wfn1.bmp	blankscreen.bmp	circle.bmp
118	real_c	real_topleft_diff_c	11	878	18	mask.bmp	blankscreen.bmp	wfn4.bmp	blankscreen.bmp	circle.bmp
118	real_c	real_topright_diff_c	12	625	18	mask.bmp	blankscreen.bmp	wmd4.bmp	blankscreen.bmp	circle.bmp
118	real_c	real_topleft_diff_c	13	671	18	mask.bmp	blankscreen.bmp	wfd3.bmp	blankscreen.bmp	circle.bmp
118	real_c	real_topright_same_c	14	603	18	mask.bmp	blankscreen.bmp	wmd1.bmp	blankscreen.bmp	circle.bmp
118	real_c	real_bottomleft_same_c	15	538	23	mask.bmp	blankscreen.bmp	wfd2.bmp	blankscreen.bmp	square.bmp
118	real_c	real_bottomright_diff_c	16	683	23	mask.bmp	blankscreen.bmp	wmd3.bmp	blankscreen.bmp	square.bmp
118	real_c	real_topright_same_c	17	550	23	mask.bmp	blankscreen.bmp	wfn2.bmp	blankscreen.bmp	square.bmp
118	real_c	real_bottomleft_diff_c	18	735	18	mask.bmp	blankscreen.bmp	wfn3.bmp	blankscreen.bmp	circle.bmp
118	real_c	real_topright_diff_c	19	704	23	mask.bmp	blankscreen.bmp	wfn5.bmp	blankscreen.bmp	square.bmp
118	real_c	real_topleft_diff_c	20	1059	18	mask.bmp	blankscreen.bmp	wmn5.bmp	blankscreen.bmp	circle.bmp
118	real_d	real_topleft_diff_d	1	1103	18	mask.bmp	blankscreen.bmp	wfn10.bmp	blankscreen.bmp	circle.bmp
118	real_d	real_topright_same_d	2	777	18	mask.bmp	blankscreen.bmp	wmd7.bmp	blankscreen.bmp	circle.bmp
118	real_d	real_topright_diff_d	3	649	18	mask.bmp	blankscreen.bmp	wmd10.bmp	blankscreen.bmp	circle.bmp
118	real_d	real_bottomright_diff_d	4	517	23	mask.bmp	blankscreen.bmp	wfn9.bmp	blankscreen.bmp	square.bmp
118	real_d	real_bottomright_diff_d	5	608	18	mask.bmp	blankscreen.bmp	wfd8.bmp	blankscreen.bmp	square.bmp
118	real_d	real_bottomleft_diff_d	6	582	18	mask.bmp	blankscreen.bmp	wmn9.bmp	blankscreen.bmp	circle.bmp
118	real_d	real_topleft_diff_d	7	549	18	mask.bmp	blankscreen.bmp	wmd9.bmp	blankscreen.bmp	circle.bmp
118	real_d	real_bottomleft_diff_d	8	558	18	mask.bmp	blankscreen.bmp	wfd10.bmp	blankscreen.bmp	circle.bmp
118	real_d	real_bottomleft_diff_d	9	599	18	mask.bmp	blankscreen.bmp	wmd8.bmp	blankscreen.bmp	circle.bmp
118	real_d	real_bottomleft_same_d	10	509	23	mask.bmp	blankscreen.bmp	wmn7.bmp	blankscreen.bmp	square.bmp
118	real_d	real_topleft_same_d	11	560	18	mask.bmp	blankscreen.bmp	wmd6.bmp	blankscreen.bmp	circle.bmp
118	real_d	real_bottomright_diff_d	12	705	18	mask.bmp	blankscreen.bmp	wmn10.bmp	blankscreen.bmp	circle.bmp
118	real_d	real_topright_diff_d	13	764	18	mask.bmp	blankscreen.bmp	wfd9.bmp	blankscreen.bmp	circle.bmp
118	real_d	real_topright_same_d	14	716	23	mask.bmp	blankscreen.bmp	wfd6.bmp	blankscreen.bmp	square.bmp
118	real_d	real_topright_diff_d	15	598	18	mask.bmp	blankscreen.bmp	wfn8.bmp	blankscreen.bmp	circle.bmp
118	real_d	real_bottomright_same_d	16	598	18	mask.bmp	blankscreen.bmp	wfn7.bmp	blankscreen.bmp	circle.bmp
118	real_d	real_bottomright_same_d	17	533	23	mask.bmp	blankscreen.bmp	wfd7.bmp	blankscreen.bmp	square.bmp
118	real_d	real_topleft_same_d	18	446	18	mask.bmp	blankscreen.bmp	wmn6.bmp	blankscreen.bmp	circle.bmp
118	real_d	real_topleft_diff_d	19	620	23	mask.bmp	blankscreen.bmp	wmn8.bmp	blankscreen.bmp	square.bmp
118	real_d	real_bottomleft_same_d	20	746	23	mask.bmp	blankscreen.bmp	wfn6.bmp	blankscreen.bmp	square.bmp
122	practice	practice_topleft_same	1	1155	18	mask.bmp	blankscreen.bmp	practice2.jpg	blankscreen.bmp	circle.bmp
122	practice	practice_topright_same	2	747	18	mask.bmp	blankscreen.bmp	practice4.jpg	blankscreen.bmp	circle.bmp
122	practice	practice_bottomright_same	3	468	18	mask.bmp	blankscreen.bmp	practice7.jpg	blankscreen.bmp	circle.bmp
122	practice	practice_bottomright_diff	4	480	18	mask.bmp	blankscreen.bmp	practice12.jpg	blankscreen.bmp	circle.bmp
122	practice	practice_bottomleft_same	5	636	23	mask.bmp	blankscreen.bmp	practice6.jpg	blankscreen.bmp	square.bmp
122	practice	practice_bottomright_same	6	321	18	mask.bmp	blankscreen.bmp	practice8.jpg	blankscreen.bmp	circle.bmp
122	practice	practice_bottomleft_same	7	659	23	mask.bmp	blankscreen.bmp	practice5.jpg	blankscreen.bmp	square.bmp
122	practice	practice_topright_diff	8	712	23	mask.bmp	blankscreen.bmp	practice10.jpg	blankscreen.bmp	square.bmp
122	practice	practice_topleft_same	9	602	23	mask.bmp	blankscreen.bmp	practice1.jpg	blankscreen.bmp	square.bmp
122	practice	practice_bottomleft_diff	10	625	18	mask.bmp	blankscreen.bmp	practice11.jpg	blankscreen.bmp	circle.bmp
122	practice	practice_topleft_diff	11	559	18	mask.bmp	blankscreen.bmp	practice9.jpg	blankscreen.bmp	circle.bmp
122	practice	practice_topright_same	12	440	18	mask.bmp	blankscreen.bmp	practice3.jpg	blankscreen.bmp	circle.bmp
122	real_a	real_topleft_same_a	1	537	18	mask.bmp	blankscreen.bmp	wfn4.bmp	blankscreen.bmp	circle.bmp
122	real_a	real_bottomright_same_a	2	370	23	mask.bmp	blankscreen.bmp	wmd5.bmp	blankscreen.bmp	square.bmp
122	real_a	real_topleft_diff_a	3	482	18	mask.bmp	blankscreen.bmp	wfn3.bmp	blankscreen.bmp	circle.bmp
122	real_a	real_bottomleft_same_a	4	485	18	mask.bmp	blankscreen.bmp	wmd4.bmp	blankscreen.bmp	circle.bmp
122	real_a	real_bottomleft_diff_a	5	777	23	mask.bmp	blankscreen.bmp	wfd3.bmp	blankscreen.bmp	square.bmp
122	real_a	real_bottomleft_diff_a	6	737	23	mask.bmp	blankscreen.bmp	wfn1.bmp	blankscreen.bmp	square.bmp
122	real_a	real_bottomright_diff_a	7	578	23	mask.bmp	blankscreen.bmp	wmd1.bmp	blankscreen.bmp	square.bmp
122	real_a	real_bottomright_diff_a	8	698	23	mask.bmp	blankscreen.bmp	wfn2.bmp	blankscreen.bmp	square.bmp
122	real_a	real_bottomleft_diff_a	9	533	18	mask.bmp	blankscreen.bmp	wmn2.bmp	blankscreen.bmp	circle.bmp
122	real_a	real_topright_diff_a	10	678	18	mask.bmp	blankscreen.bmp	wmd3.bmp	blankscreen.bmp	circle.bmp
122	real_a	real_topright_same_a	11	586	18	mask.bmp	blankscreen.bmp	wfd5.bmp	blankscreen.bmp	circle.bmp
122	real_a	real_topright_diff_a	12	634	18	mask.bmp	blankscreen.bmp	wmn1.bmp	blankscreen.bmp	circle.bmp
122	real_a	real_topleft_diff_a	13	647	23	mask.bmp	blankscreen.bmp	wfd1.bmp	blankscreen.bmp	square.bmp
122	real_a	real_topright_diff_a	14	652	23	mask.bmp	blankscreen.bmp	wfd2.bmp	blankscreen.bmp	square.bmp
122	real_a	real_bottomright_same_a	15	529	23	mask.bmp	blankscreen.bmp	wmn5.bmp	blankscreen.bmp	square.bmp
